ExperimentName,Subject,Ans,C1,C2,C3,cratSlide2.ACC,cratSlide2.RESP,cratSlide2.RT,inSlide.RESP,inSlide.RT
CRAT,121,,,,,,,,,
CRAT,121,,,,,,,,,
CRAT,121,,,,,,,,,
CRAT,121,,,,,,,,,
CRAT,121,,,,,,,,,
CRAT,121,RACE{ENTER},HORSE,HUMAN,DRAG,0,,0,0,1871
CRAT,121,GOLD{ENTER},FISH,MINE,RUSH,1,gold{ENTER},1751,4,2602
CRAT,121,SAW{ENTER},MILL,TOOTH,DUST,0,,0,0,1456
CRAT,121,RING{ENTER},MASTER,TOSS,FINGER,0,,11551,0,1363
CRAT,121,STATION{ENTER},WAGON,BREAK,RADIO,1,station{ENTER},4792,3,3063
CRAT,121,CALL{ENTER},CAT,NUMBER,PHONE,1,call{ENTER},4792,2,2200
CRAT,121,SUIT{ENTER},WET,LAW,BUSINESS,0,,0,0,1251
CRAT,121,CAMP{ENTER},BOOT,SUMMER,GROUND,1,camp{ENTER},1927,3,2755
CRAT,121,STREET{ENTER},MAIN,SWEEPER,LIGHT,1,street{ENTER},12587,2,2441
CRAT,121,PAPER{ENTER},FLY,CLIP,WALL,0,,0,0,1244
CRAT,121,WALK{ENTER},WAY,BOARD,SLEEP,0,head{ENTER},7876,3,1774
CRAT,121,RED{ENTER},CARPET,ALERT,INK,1,red{ENTER},19709,3,3974
CRAT,121,TREE{ENTER},PALM,SHOE,HOUSE,0,,0,0,1922
CRAT,121,SPACE{ENTER},CADET,CAPSULE,SHIP,0,time{ENTER},8461,2,2366
CRAT,121,BRUSH{ENTER},SAGE,PAINT,HAIR,1,brush{ENTER},1895,4,2725
CRAT,121,BOAT{ENTER},SHOW,LIFE,ROW,0,,0,0,1465
CRAT,121,PIT{ENTER},PEACH,ARM,TAR,0,,0,0,528
CRAT,121,HEAD{ENTER},HAMMER,GEAR,HUNTER,1,head{ENTER},9555,2,3188
CRAT,121,MOON{ENTER},SHINE,BEAM,STRUCK,0,star{ENTER},5062,2,1418
CRAT,121,SOAP{ENTER},OPERA,HAND,DISH,1,soap{ENTER},1844,4,2212
CRAT,121,WRITER{ENTER},TYPE,GHOST,SCREEN,0,,0,0,1525
CRAT,121,FIGURE{ENTER},EIGHT,SKATE,STICK,1,figure{ENTER},2497,4,2933
CRAT,121,BLOOD{ENTER},HOUND,PRESSURE,SHOT,0,under{ENTER},18017,2,2531
CRAT,121,HOLE{ENTER},FOX,MAN,PEEP,0,,0,0,1377
CRAT,121,GIRL{ENTER},FLOWER,FRIEND,SCOUT,0,,0,0,2215
CRAT,121,TURN{ENTER},PIKE,COAT,SIGNAL,0,,0,0,849
CRAT,121,CHEESE{ENTER},COTTAGE,BRICK,CAKE,0,hous,24740,0,2120
CRAT,121,POWDER{ENTER},KEG,PUFF,ROOM,0,,0,0,1661
CRAT,121,COMMON{ENTER},SENSE,COURTESY,PLACE,1,common{ENTER},15597,1,2616
CRAT,121,MARK{ENTER},DOWN,QUESTION,CHECK,0,,0,0,2669
CRAT,121,,,,,,,,,
CRAT,121,,,,,,,,,
CRAT,121,,,,,,,,,
CRAT,121,,,,,,,,,
CRAT,121,,,,,,,,,
CRAT,121,,,,,,,,,
CRAT,120,,,,,,,,,
CRAT,120,,,,,,,,,
CRAT,120,,,,,,,,,
CRAT,120,,,,,,,,,
CRAT,120,,,,,,,,,
CRAT,120,RING{ENTER},MASTER,TOSS,FINGER,1,RING{ENTER},2492,4,1903
CRAT,120,STATION{ENTER},WAGON,BREAK,RADIO,1,STATION{ENTER},9432,2,5855
CRAT,120,BLOOD{ENTER},HOUND,PRESSURE,SHOT,1,BLOOD{ENTER},5489,3,4561
CRAT,120,BRUSH{ENTER},SAGE,PAINT,HAIR,0,WET{ENTER},1778,3,2100
CRAT,120,CAMP{ENTER},BOOT,SUMMER,GROUND,1,CAMP{ENTER},1265,4,1306
CRAT,120,SAW{ENTER},MILL,TOOTH,DUST,1,SAW{ENTER},5479,3,2713
CRAT,120,RACE{ENTER},HORSE,HUMAN,DRAG,1,RACE{ENTER},1354,4,1151
CRAT,120,MOON{ENTER},SHINE,BEAM,STRUCK,1,MOON{ENTER},8221,2,6056
CRAT,120,FIGURE{ENTER},EIGHT,SKATE,STICK,0,BALL{ENTER},9508,2,2056
CRAT,120,TREE{ENTER},PALM,SHOE,HOUSE,1,TREE{ENTER},3040,3,2459
CRAT,120,BOAT{ENTER},SHOW,LIFE,ROW,1,BOAT{ENTER},3679,3,2127
CRAT,120,RED{ENTER},CARPET,ALERT,INK,1,RED{ENTER},1988,4,1804
CRAT,120,SOAP{ENTER},OPERA,HAND,DISH,1,SOAP{ENTER},11950,3,1336
CRAT,120,CALL{ENTER},CAT,NUMBER,PHONE,1,CALL{ENTER},11289,3,1887
CRAT,120,MARK{ENTER},DOWN,QUESTION,CHECK,1,MARK{ENTER},2353,4,2107
CRAT,120,GOLD{ENTER},FISH,MINE,RUSH,0,,0,0,1731
CRAT,120,SUIT{ENTER},WET,LAW,BUSINESS,0,,0,0,1265
CRAT,120,CHEESE{ENTER},COTTAGE,BRICK,CAKE,1,CHEESE{ENTER},2584,4,1832
CRAT,120,POWDER{ENTER},KEG,PUFF,ROOM,0,SMALL{ENTER},5531,4,1835
CRAT,120,STREET{ENTER},MAIN,SWEEPER,LIGHT,1,STREET{ENTER},6077,3,2390
CRAT,120,WALK{ENTER},WAY,BOARD,SLEEP,1,WALK{ENTER},5745,4,1639
CRAT,120,GIRL{ENTER},FLOWER,FRIEND,SCOUT,1,GIRL{ENTER},1448,4,1545
CRAT,120,PIT{ENTER},PEACH,ARM,TAR,0,TREE{ENTER},9560,3,6584
CRAT,120,TURN{ENTER},PIKE,COAT,SIGNAL,1,TURN{ENTER},11115,3,1577
CRAT,120,WRITER{ENTER},TYPE,GHOST,SCREEN,1,WRITER{ENTER},4049,4,1361
CRAT,120,HOLE{ENTER},FOX,MAN,PEEP,1,HOLE{ENTER},1262,4,1207
CRAT,120,COMMON{ENTER},SENSE,COURTESY,PLACE,1,COMMON{ENTER},1311,4,1094
CRAT,120,PAPER{ENTER},FLY,CLIP,WALL,0,TRAP{ENTER},9201,3,1457
CRAT,120,HEAD{ENTER},HAMMER,GEAR,HUNTER,0,BAG{ENTER},17501,2,2039
CRAT,120,SPACE{ENTER},CADET,CAPSULE,SHIP,1,S{LEFTBRACKET}{LEFTBRACE}PACE{ENTER},2316,4,1063
CRAT,120,,,,,,,,,
CRAT,120,,,,,,,,,
CRAT,120,,,,,,,,,
CRAT,120,,,,,,,,,
CRAT,120,,,,,,,,,
CRAT,120,,,,,,,,,
CRAT,119,,,,,,,,,
CRAT,119,,,,,,,,,
CRAT,119,,,,,,,,,
CRAT,119,,,,,,,,,
CRAT,119,,,,,,,,,
CRAT,119,MARK{ENTER},DOWN,QUESTION,CHECK,1,MARK{ENTER},2691,3,3997
CRAT,119,POWDER{ENTER},KEG,PUFF,ROOM,0,,0,0,1420
CRAT,119,PIT{ENTER},PEACH,ARM,TAR,0,,0,0,1260
CRAT,119,HOLE{ENTER},FOX,MAN,PEEP,0,,0,0,1414
CRAT,119,RACE{ENTER},HORSE,HUMAN,DRAG,0,SHOW{ENTER},12325,1,4270
CRAT,119,STATION{ENTER},WAGON,BREAK,RADIO,0,,0,0,1052
CRAT,119,PAPER{ENTER},FLY,CLIP,WALL,0,ART{ENTER},20489,1,2080
CRAT,119,RED{ENTER},CARPET,ALERT,INK,1,RED{ENTER},6315,3,2217
CRAT,119,CHEESE{ENTER},COTTAGE,BRICK,CAKE,0,,0,0,1476
CRAT,119,SAW{ENTER},MILL,TOOTH,DUST,0,BRUSH{ENTER},3787,2,3046
CRAT,119,BLOOD{ENTER},HOUND,PRESSURE,SHOT,0,GLASS{ENTER},4692,3,2169
CRAT,119,HEAD{ENTER},HAMMER,GEAR,HUNTER,0,TIME,24925,0,3473
CRAT,119,BOAT{ENTER},SHOW,LIFE,ROW,1,BOAT{ENTER},8916,4,1489
CRAT,119,BRUSH{ENTER},SAGE,PAINT,HAIR,0,,0,0,1906
CRAT,119,RING{ENTER},MASTER,TOSS,FINGER,1,RING{ENTER},11818,3,1384
CRAT,119,TREE{ENTER},PALM,SHOE,HOUSE,0,,0,0,1452
CRAT,119,GIRL{ENTER},FLOWER,FRIEND,SCOUT,1,GIRL{ENTER},9310,3,3050
CRAT,119,TURN{ENTER},PIKE,COAT,SIGNAL,0,BEAM{ENTER},6175,4,1763
CRAT,119,STREET{ENTER},MAIN,SWEEPER,LIGHT,1,STREET{ENTER},3482,4,1522
CRAT,119,SUIT{ENTER},WET,LAW,BUSINESS,0,,0,0,2599
CRAT,119,COMMON{ENTER},SENSE,COURTESY,PLACE,1,COMMON{ENTER},2005,4,685
CRAT,119,WALK{ENTER},WAY,BOARD,SLEEP,0,HIGH{ENTER},12617,4,1526
CRAT,119,SPACE{ENTER},CADET,CAPSULE,SHIP,0,ARMY,24881,3,6277
CRAT,119,CALL{ENTER},CAT,NUMBER,PHONE,0,MOBILE{ENTER},11486,2,2843
CRAT,119,FIGURE{ENTER},EIGHT,SKATE,STICK,0,,0,0,2651
CRAT,119,WRITER{ENTER},TYPE,GHOST,SCREEN,0,WHITE{ENTER},13666,3,1649
CRAT,119,CAMP{ENTER},BOOT,SUMMER,GROUND,0,,0,0,944
CRAT,119,GOLD{ENTER},FISH,MINE,RUSH,1,GOLD{ENTER},9004,4,1205
CRAT,119,MOON{ENTER},SHINE,BEAM,STRUCK,0,DOWN{ENTER},20378,2,6054
CRAT,119,SOAP{ENTER},OPERA,HAND,DISH,0,WASH{ENTER},17996,2,1855
CRAT,119,,,,,,,,,
CRAT,119,,,,,,,,,
CRAT,119,,,,,,,,,
CRAT,119,,,,,,,,,
CRAT,119,,,,,,,,,
CRAT,119,,,,,,,,,
CRAT,118,,,,,,,,,
CRAT,118,,,,,,,,,
CRAT,118,,,,,,,,,
CRAT,118,,,,,,,,,
CRAT,118,,,,,,,,,
CRAT,118,CHEESE{ENTER},COTTAGE,BRICK,CAKE,1,CHEESE{ENTER},14959,1,3222
CRAT,118,CAMP{ENTER},BOOT,SUMMER,GROUND,0,,0,0,15233
CRAT,118,BRUSH{ENTER},SAGE,PAINT,HAIR,0,,0,0,2312
CRAT,118,WALK{ENTER},WAY,BOARD,SLEEP,0,SUB,24212,4,5929
CRAT,118,FIGURE{ENTER},EIGHT,SKATE,STICK,0,,0,0,5029
CRAT,118,SPACE{ENTER},CADET,CAPSULE,SHIP,0,{ENTER},24322,0,804
CRAT,118,PAPER{ENTER},FLY,CLIP,WALL,0,,0,0,2886
CRAT,118,COMMON{ENTER},SENSE,COURTESY,PLACE,0,{ENTER},226,0,1576
CRAT,118,MOON{ENTER},SHINE,BEAM,STRUCK,0,{ENTER},273,0,4308
CRAT,118,RED{ENTER},CARPET,ALERT,INK,0,CLEANER{ENTER},21348,1,4199
CRAT,118,HEAD{ENTER},HAMMER,GEAR,HUNTER,0,{ENTER},14333,0,1279
CRAT,118,STATION{ENTER},WAGON,BREAK,RADIO,0,{ENTER},11174,0,1346
CRAT,118,MARK{ENTER},DOWN,QUESTION,CHECK,0,,0,0,2394
CRAT,118,SOAP{ENTER},OPERA,HAND,DISH,1,SOAP{ENTER},9801,4,1600
CRAT,118,GIRL{ENTER},FLOWER,FRIEND,SCOUT,0,BOY{ENTER},10259,4,2549
CRAT,118,RACE{ENTER},HORSE,HUMAN,DRAG,1,RACE{ENTER},5688,4,2081
CRAT,118,BLOOD{ENTER},HOUND,PRESSURE,SHOT,0,GLASS{ENTER},10292,4,2582
CRAT,118,POWDER{ENTER},KEG,PUFF,ROOM,0,,15721,0,4637
CRAT,118,RING{ENTER},MASTER,TOSS,FINGER,1,RING{ENTER},5952,1,5053
CRAT,118,HOLE{ENTER},FOX,MAN,PEEP,0,,0,0,9382
CRAT,118,SAW{ENTER},MILL,TOOTH,DUST,0,,0,0,2586
CRAT,118,WRITER{ENTER},TYPE,GHOST,SCREEN,0,MOVIE{ENTER},14442,4,2296
CRAT,118,BOAT{ENTER},SHOW,LIFE,ROW,0,,0,0,2994
CRAT,118,SUIT{ENTER},WET,LAW,BUSINESS,0,,0,0,1821
CRAT,118,TURN{ENTER},PIKE,COAT,SIGNAL,0,RAIN{ENTER},13289,1,1482
CRAT,118,GOLD{ENTER},FISH,MINE,RUSH,1,GOLD{ENTER},4847,4,2092
CRAT,118,TREE{ENTER},PALM,SHOE,HOUSE,0,,0,0,2239
CRAT,118,PIT{ENTER},PEACH,ARM,TAR,1,PIT{ENTER},11722,4,2285
CRAT,118,CALL{ENTER},CAT,NUMBER,PHONE,0,CALLER{ENTER},19241,4,4008
CRAT,118,STREET{ENTER},MAIN,SWEEPER,LIGHT,1,STREET{ENTER},11578,4,1460
CRAT,118,,,,,,,,,
CRAT,118,,,,,,,,,
CRAT,118,,,,,,,,,
CRAT,118,,,,,,,,,
CRAT,118,,,,,,,,,
CRAT,118,,,,,,,,,
CRAT,117,,,,,,,,,
CRAT,117,,,,,,,,,
CRAT,117,,,,,,,,,
CRAT,117,,,,,,,,,
CRAT,117,,,,,,,,,
CRAT,117,PIT{ENTER},PEACH,ARM,TAR,1,PIT{ENTER},8711,2,4685
CRAT,117,STREET{ENTER},MAIN,SWEEPER,LIGHT,1,STREET{ENTER},6341,3,3472
CRAT,117,CALL{ENTER},CAT,NUMBER,PHONE,0,,0,0,2870
CRAT,117,GIRL{ENTER},FLOWER,FRIEND,SCOUT,0,BOY{ENTER},5685,3,2078
CRAT,117,FIGURE{ENTER},EIGHT,SKATE,STICK,0,,0,0,738
CRAT,117,MARK{ENTER},DOWN,QUESTION,CHECK,0,BLANK{ENTER},11161,3,4533
CRAT,117,WRITER{ENTER},TYPE,GHOST,SCREEN,0,,0,0,874
CRAT,117,SOAP{ENTER},OPERA,HAND,DISH,0,,0,0,759
CRAT,117,SUIT{ENTER},WET,LAW,BUSINESS,0,,0,0,1943
CRAT,117,STATION{ENTER},WAGON,BREAK,RADIO,1,STATION{ENTER},3018,4,2886
CRAT,117,COMMON{ENTER},SENSE,COURTESY,PLACE,0,,0,0,1083
CRAT,117,SAW{ENTER},MILL,TOOTH,DUST,1,SAW{ENTER},2366,4,1463
CRAT,117,CAMP{ENTER},BOOT,SUMMER,GROUND,1,CAMP{ENTER},2919,4,1000
CRAT,117,HOLE{ENTER},FOX,MAN,PEEP,1,HOLE{ENTER},1552,4,1084
CRAT,117,TURN{ENTER},PIKE,COAT,SIGNAL,1,TURN{ENTER},2273,4,990
CRAT,117,BRUSH{ENTER},SAGE,PAINT,HAIR,0,DRY{ENTER},3411,4,974
CRAT,117,WALK{ENTER},WAY,BOARD,SLEEP,0,,0,0,1850
CRAT,117,TREE{ENTER},PALM,SHOE,HOUSE,0,,0,0,3320
CRAT,117,RACE{ENTER},HORSE,HUMAN,DRAG,1,RACE{ENTER},2760,3,1552
CRAT,117,GOLD{ENTER},FISH,MINE,RUSH,0,,0,0,676
CRAT,117,RED{ENTER},CARPET,ALERT,INK,1,RED{ENTER},2097,4,1462
CRAT,117,PAPER{ENTER},FLY,CLIP,WALL,0,TRAP{ENTER},20786,2,5869
CRAT,117,CHEESE{ENTER},COTTAGE,BRICK,CAKE,0,HOUSE{ENTER},4817,1,2815
CRAT,117,BOAT{ENTER},SHOW,LIFE,ROW,0,TIME{ENTER},8358,1,5147
CRAT,117,RING{ENTER},MASTER,TOSS,FINGER,0,,0,0,1409
CRAT,117,SPACE{ENTER},CADET,CAPSULE,SHIP,0,NAVAL{ENTER},3842,4,2586
CRAT,117,MOON{ENTER},SHINE,BEAM,STRUCK,0,STAR{ENTER},19691,4,1350
CRAT,117,BLOOD{ENTER},HOUND,PRESSURE,SHOT,1,BLOOD{ENTER},2686,4,809
CRAT,117,HEAD{ENTER},HAMMER,GEAR,HUNTER,0,JACK{ENTER},19307,1,3670
CRAT,117,POWDER{ENTER},KEG,PUFF,ROOM,0,PARTY{ENTER},20835,2,5324
CRAT,117,,,,,,,,,
CRAT,117,,,,,,,,,
CRAT,117,,,,,,,,,
CRAT,117,,,,,,,,,
CRAT,117,,,,,,,,,
CRAT,117,,,,,,,,,
CRAT,116,,,,,,,,,
CRAT,116,,,,,,,,,
CRAT,116,,,,,,,,,
CRAT,116,,,,,,,,,
CRAT,116,,,,,,,,,
CRAT,116,GIRL{ENTER},FLOWER,FRIEND,SCOUT,1,GIRL{ENTER},3074,2,2412
CRAT,116,MOON{ENTER},SHINE,BEAM,STRUCK,0,STAR{ENTER},3098,1,1987
CRAT,116,COMMON{ENTER},SENSE,COURTESY,PLACE,0,CALL{ENTER},12379,1,2962
CRAT,116,HEAD{ENTER},HAMMER,GEAR,HUNTER,1,HEAD{ENTER},2826,2,1598
CRAT,116,BLOOD{ENTER},HOUND,PRESSURE,SHOT,0,SURE{ENTER},8959,1,2059
CRAT,116,STREET{ENTER},MAIN,SWEEPER,LIGHT,1,STREET{ENTER},3825,2,1850
CRAT,116,CALL{ENTER},CAT,NUMBER,PHONE,1,CALL{ENTER},7235,1,1720
CRAT,116,STATION{ENTER},WAGON,BREAK,RADIO,0,WAVE{ENTER},5828,1,1959
CRAT,116,HOLE{ENTER},FOX,MAN,PEEP,1,HOLE{ENTER},10738,1,1216
CRAT,116,SOAP{ENTER},OPERA,HAND,DISH,0,,0,0,2406
CRAT,116,WRITER{ENTER},TYPE,GHOST,SCREEN,0,,0,0,1628
CRAT,116,SAW{ENTER},MILL,TOOTH,DUST,0,FAIRY{ENTER},12535,2,2296
CRAT,116,POWDER{ENTER},KEG,PUFF,ROOM,0,,0,0,1705
CRAT,116,SPACE{ENTER},CADET,CAPSULE,SHIP,0,TIME{ENTER},12032,1,2391
CRAT,116,TREE{ENTER},PALM,SHOE,HOUSE,0,,20606,0,1795
CRAT,116,RING{ENTER},MASTER,TOSS,FINGER,0,,0,0,1655
CRAT,116,WALK{ENTER},WAY,BOARD,SLEEP,1,WALK{ENTER},6946,2,2115
CRAT,116,BRUSH{ENTER},SAGE,PAINT,HAIR,0,SPRAY{ENTER},8889,1,2648
CRAT,116,FIGURE{ENTER},EIGHT,SKATE,STICK,0,ICE{ENTER},13163,1,1328
CRAT,116,TURN{ENTER},PIKE,COAT,SIGNAL,1,TURN{ENTER},4029,4,3070
CRAT,116,GOLD{ENTER},FISH,MINE,RUSH,0,OCEAN{ENTER},12281,1,1156
CRAT,116,CHEESE{ENTER},COTTAGE,BRICK,CAKE,0,,0,0,2731
CRAT,116,PAPER{ENTER},FLY,CLIP,WALL,0,FIRE{ENTER},3369,4,1399
CRAT,116,CAMP{ENTER},BOOT,SUMMER,GROUND,0,,0,0,1829
CRAT,116,RACE{ENTER},HORSE,HUMAN,DRAG,1,RACE{ENTER},3432,3,1890
CRAT,116,MARK{ENTER},DOWN,QUESTION,CHECK,0,POINT{ENTER},9249,1,1376
CRAT,116,BOAT{ENTER},SHOW,LIFE,ROW,0,TIME{ENTER},14794,1,824
CRAT,116,PIT{ENTER},PEACH,ARM,TAR,0,,0,0,2801
CRAT,116,SUIT{ENTER},WET,LAW,BUSINESS,0,,0,0,1238
CRAT,116,RED{ENTER},CARPET,ALERT,INK,0,,0,0,1473
CRAT,116,,,,,,,,,
CRAT,116,,,,,,,,,
CRAT,116,,,,,,,,,
CRAT,116,,,,,,,,,
CRAT,116,,,,,,,,,
CRAT,116,,,,,,,,,
CRAT,115,,,,,,,,,
CRAT,115,,,,,,,,,
CRAT,115,,,,,,,,,
CRAT,115,,,,,,,,,
CRAT,115,,,,,,,,,
CRAT,115,HEAD{ENTER},HAMMER,GEAR,HUNTER,0,{ENTER},5174,0,1365
CRAT,115,PAPER{ENTER},FLY,CLIP,WALL,1,PAPER{ENTER},8890,2,6760
CRAT,115,CALL{ENTER},CAT,NUMBER,PHONE,0,{ENTER},10565,0,1322
CRAT,115,BOAT{ENTER},SHOW,LIFE,ROW,0,{ENTER},4792,0,792
CRAT,115,SOAP{ENTER},OPERA,HAND,DISH,0,{ENTER},12006,0,1276
CRAT,115,CAMP{ENTER},BOOT,SUMMER,GROUND,0,{ENTER},16011,0,1013
CRAT,115,COMMON{ENTER},SENSE,COURTESY,PLACE,0,MY{ENTER},12626,3,4942
CRAT,115,TREE{ENTER},PALM,SHOE,HOUSE,0,{ENTER},15088,0,1202
CRAT,115,GIRL{ENTER},FLOWER,FRIEND,SCOUT,1,GIRL{ENTER},12866,1,5651
CRAT,115,SUIT{ENTER},WET,LAW,BUSINESS,0,{ENTER},7731,0,547
CRAT,115,RED{ENTER},CARPET,ALERT,INK,1,RED{ENTER},2387,3,2587
CRAT,115,SAW{ENTER},MILL,TOOTH,DUST,0,{ENTER},20367,0,1707
CRAT,115,WALK{ENTER},WAY,BOARD,SLEEP,1,WALK{ENTER},7153,1,2634
CRAT,115,MARK{ENTER},DOWN,QUESTION,CHECK,1,MARK{ENTER},8303,3,4374
CRAT,115,TURN{ENTER},PIKE,COAT,SIGNAL,0,,0,0,1643
CRAT,115,WRITER{ENTER},TYPE,GHOST,SCREEN,0,GHOST{ENTER},16554,3,3996
CRAT,115,RING{ENTER},MASTER,TOSS,FINGER,0,{ENTER},18603,0,852
CRAT,115,RACE{ENTER},HORSE,HUMAN,DRAG,0,SHOW{ENTER},22959,3,1818
CRAT,115,PIT{ENTER},PEACH,ARM,TAR,0,SMOOTH{ENTER},4359,3,2074
CRAT,115,BRUSH{ENTER},SAGE,PAINT,HAIR,0,{ENTER},6955,0,1005
CRAT,115,MOON{ENTER},SHINE,BEAM,STRUCK,0,STAR{ENTER},7143,4,4688
CRAT,115,STATION{ENTER},WAGON,BREAK,RADIO,0,{ENTER},12106,0,1261
CRAT,115,SPACE{ENTER},CADET,CAPSULE,SHIP,1,SPACE{ENTER},13270,4,2695
CRAT,115,BLOOD{ENTER},HOUND,PRESSURE,SHOT,0,{ENTER},11342,0,833
CRAT,115,STREET{ENTER},MAIN,SWEEPER,LIGHT,0,{ENTER},14421,0,900
CRAT,115,POWDER{ENTER},KEG,PUFF,ROOM,0,{ENTER},6832,0,1304
CRAT,115,CHEESE{ENTER},COTTAGE,BRICK,CAKE,0,,0,0,1566
CRAT,115,GOLD{ENTER},FISH,MINE,RUSH,0,{ENTER},9506,0,1701
CRAT,115,FIGURE{ENTER},EIGHT,SKATE,STICK,0,BALL{ENTER},10139,3,723
CRAT,115,HOLE{ENTER},FOX,MAN,PEEP,1,HOLE{ENTER},1755,3,2030
CRAT,115,,,,,,,,,
CRAT,115,,,,,,,,,
CRAT,115,,,,,,,,,
CRAT,115,,,,,,,,,
CRAT,115,,,,,,,,,
CRAT,115,,,,,,,,,
CRAT,114,,,,,,,,,
CRAT,114,,,,,,,,,
CRAT,114,,,,,,,,,
CRAT,114,,,,,,,,,
CRAT,114,,,,,,,,,
CRAT,114,MOON{ENTER},SHINE,BEAM,STRUCK,0,LIGHT{ENTER},17108,3,12958
CRAT,114,RING{ENTER},MASTER,TOSS,FINGER,0,HAND{ENTER},13981,1,4206
CRAT,114,WRITER{ENTER},TYPE,GHOST,SCREEN,0,KEYBOARD{ENTER},12839,3,8522
CRAT,114,SUIT{ENTER},WET,LAW,BUSINESS,0,FIRM{ENTER},13776,3,4346
CRAT,114,STREET{ENTER},MAIN,SWEEPER,LIGHT,0,,0,0,1724
CRAT,114,CAMP{ENTER},BOOT,SUMMER,GROUND,0,{SHIFT}PLAY{ENTER},23326,3,2778
CRAT,114,RED{ENTER},CARPET,ALERT,INK,0,SPILL{ENTER},4290,4,2936
CRAT,114,GOLD{ENTER},FISH,MINE,RUSH,1,{SHIFT}GOLD{ENTER},10846,3,4119
CRAT,114,BLOOD{ENTER},HOUND,PRESSURE,SHOT,0,GUN{ENTER},8802,2,2899
CRAT,114,SPACE{ENTER},CADET,CAPSULE,SHIP,0,PILL{ENTER},16594,3,4338
CRAT,114,MARK{ENTER},DOWN,QUESTION,CHECK,0,,0,0,1952
CRAT,114,CHEESE{ENTER},COTTAGE,BRICK,CAKE,0,,0,0,1380
CRAT,114,BOAT{ENTER},SHOW,LIFE,ROW,1,BOAT{ENTER},1839,2,10909
CRAT,114,HOLE{ENTER},FOX,MAN,PEEP,0,TALK{ENTER},10498,3,4682
CRAT,114,STATION{ENTER},WAGON,BREAK,RADIO,0,CAR{ENTER},1883,4,1481
CRAT,114,POWDER{ENTER},KEG,PUFF,ROOM,0,,0,0,22101
CRAT,114,TREE{ENTER},PALM,SHOE,HOUSE,1,TREE{ENTER},3441,4,2667
CRAT,114,TURN{ENTER},PIKE,COAT,SIGNAL,0,LOST{ENTER},7419,2,2249
CRAT,114,FIGURE{ENTER},EIGHT,SKATE,STICK,0,,0,0,1790
CRAT,114,PIT{ENTER},PEACH,ARM,TAR,0,BLACK{ENTER},8653,4,3237
CRAT,114,BRUSH{ENTER},SAGE,PAINT,HAIR,0,GREEN{ENTER},4060,4,3787
CRAT,114,HEAD{ENTER},HAMMER,GEAR,HUNTER,1,HEAD{ENTER},6667,3,4682
CRAT,114,RACE{ENTER},HORSE,HUMAN,DRAG,0,,0,0,2469
CRAT,114,CALL{ENTER},CAT,NUMBER,PHONE,0,HOME{ENTER},18137,1,3606
CRAT,114,PAPER{ENTER},FLY,CLIP,WALL,0,SMALL{ENTER},11859,3,3696
CRAT,114,COMMON{ENTER},SENSE,COURTESY,PLACE,1,COMMON{ENTER},2470,4,1546
CRAT,114,GIRL{ENTER},FLOWER,FRIEND,SCOUT,1,GIRL{ENTER},2029,4,1253
CRAT,114,SAW{ENTER},MILL,TOOTH,DUST,0,BRUSH{ENTER},2508,4,1759
CRAT,114,SOAP{ENTER},OPERA,HAND,DISH,1,SOAP{ENTER},1923,1,3487
CRAT,114,WALK{ENTER},WAY,BOARD,SLEEP,1,WALK{ENTER},1710,1,1699
CRAT,114,,,,,,,,,
CRAT,114,,,,,,,,,
CRAT,114,,,,,,,,,
CRAT,114,,,,,,,,,
CRAT,114,,,,,,,,,
CRAT,114,,,,,,,,,
CRAT,112,,,,,,,,,
CRAT,112,,,,,,,,,
CRAT,112,,,,,,,,,
CRAT,112,,,,,,,,,
CRAT,112,,,,,,,,,
CRAT,112,TURN{ENTER},PIKE,COAT,SIGNAL,1,TURN{ENTER},2159,1,3713
CRAT,112,MOON{ENTER},SHINE,BEAM,STRUCK,1,MOON{ENTER},2038,4,1869
CRAT,112,SAW{ENTER},MILL,TOOTH,DUST,0,{ENTER},1441,0,1378
CRAT,112,WALK{ENTER},WAY,BOARD,SLEEP,1,WALK{ENTER},5232,2,7388
CRAT,112,CAMP{ENTER},BOOT,SUMMER,GROUND,0,WORK{ENTER},3145,3,3920
CRAT,112,TREE{ENTER},PALM,SHOE,HOUSE,0,{ENTER},1254,0,910
CRAT,112,BLOOD{ENTER},HOUND,PRESSURE,SHOT,0,{ENTER},853,0,1007
CRAT,112,BRUSH{ENTER},SAGE,PAINT,HAIR,1,BRUSH{ENTER},14790,4,3028
CRAT,112,STATION{ENTER},WAGON,BREAK,RADIO,0,,0,0,1849
CRAT,112,CALL{ENTER},CAT,NUMBER,PHONE,0,HOUSE{ENTER},2445,4,3570
CRAT,112,POWDER{ENTER},KEG,PUFF,ROOM,0,BEER{ENTER},2061,3,2691
CRAT,112,STREET{ENTER},MAIN,SWEEPER,LIGHT,0,MAN{ENTER},2660,4,1696
CRAT,112,HOLE{ENTER},FOX,MAN,PEEP,0,SHOW{ENTER},4161,4,1308
CRAT,112,CHEESE{ENTER},COTTAGE,BRICK,CAKE,1,CHEESE{ENTER},3826,4,1611
CRAT,112,RED{ENTER},CARPET,ALERT,INK,0,STAIN{ENTER},10140,4,4020
CRAT,112,SUIT{ENTER},WET,LAW,BUSINESS,0,FIRM{ENTER},7411,4,1633
CRAT,112,RING{ENTER},MASTER,TOSS,FINGER,1,RING{ENTER},11954,4,10987
CRAT,112,HEAD{ENTER},HAMMER,GEAR,HUNTER,0,{ENTER},20078,0,1671
CRAT,112,SOAP{ENTER},OPERA,HAND,DISH,1,SOAP{ENTER},2689,4,1644
CRAT,112,GIRL{ENTER},FLOWER,FRIEND,SCOUT,1,GIRL{ENTER},3158,4,2075
CRAT,112,FIGURE{ENTER},EIGHT,SKATE,STICK,1,FIGURE{ENTER},5482,4,2411
CRAT,112,BOAT{ENTER},SHOW,LIFE,ROW,0,TIME{ENTER},10614,4,3322
CRAT,112,GOLD{ENTER},FISH,MINE,RUSH,0,,0,0,2555
CRAT,112,PIT{ENTER},PEACH,ARM,TAR,0,FUZZ{ENTER},10982,4,2681
CRAT,112,PAPER{ENTER},FLY,CLIP,WALL,0,,0,0,1700
CRAT,112,WRITER{ENTER},TYPE,GHOST,SCREEN,0,,0,0,1605
CRAT,112,MARK{ENTER},DOWN,QUESTION,CHECK,0,,0,0,1729
CRAT,112,RACE{ENTER},HORSE,HUMAN,DRAG,0,MAN{ENTER},14636,3,10417
CRAT,112,COMMON{ENTER},SENSE,COURTESY,PLACE,1,COMMON{ENTER},2822,4,2491
CRAT,112,SPACE{ENTER},CADET,CAPSULE,SHIP,1,SPACE{ENTER},2317,4,776
CRAT,112,,,,,,,,,
CRAT,112,,,,,,,,,
CRAT,112,,,,,,,,,
CRAT,112,,,,,,,,,
CRAT,112,,,,,,,,,
CRAT,112,,,,,,,,,
CRAT,111,,,,,,,,,
CRAT,111,,,,,,,,,
CRAT,111,,,,,,,,,
CRAT,111,,,,,,,,,
CRAT,111,,,,,,,,,
CRAT,111,CHEESE{ENTER},COTTAGE,BRICK,CAKE,0,house{ENTER},5291,3,5382
CRAT,111,WALK{ENTER},WAY,BOARD,SLEEP,0,,0,0,2360
CRAT,111,HEAD{ENTER},HAMMER,GEAR,HUNTER,0,,0,0,6308
CRAT,111,STATION{ENTER},WAGON,BREAK,RADIO,0,music{ENTER},24807,1,4820
CRAT,111,BRUSH{ENTER},SAGE,PAINT,HAIR,0,,0,2,12060
CRAT,111,SPACE{ENTER},CADET,CAPSULE,SHIP,1,space{ENTER},17507,3,8460
CRAT,111,GOLD{ENTER},FISH,MINE,RUSH,1,gold{ENTER},7678,3,5793
CRAT,111,CALL{ENTER},CAT,NUMBER,PHONE,0,,0,0,2174
CRAT,111,SAW{ENTER},MILL,TOOTH,DUST,0,,0,0,1237
CRAT,111,MARK{ENTER},DOWN,QUESTION,CHECK,1,mark{ENTER},12346,2,9443
CRAT,111,SUIT{ENTER},WET,LAW,BUSINESS,0,,0,0,2349
CRAT,111,RACE{ENTER},HORSE,HUMAN,DRAG,1,race{ENTER},4760,4,1802
CRAT,111,POWDER{ENTER},KEG,PUFF,ROOM,0,,0,0,6734
CRAT,111,COMMON{ENTER},SENSE,COURTESY,PLACE,1,common{ENTER},17241,3,5918
CRAT,111,PAPER{ENTER},FLY,CLIP,WALL,0,art{ENTER},12065,1,5894
CRAT,111,HOLE{ENTER},FOX,MAN,PEEP,1,hole{ENTER},6827,4,2978
CRAT,111,MOON{ENTER},SHINE,BEAM,STRUCK,0,light{ENTER},18552,1,2388
CRAT,111,BLOOD{ENTER},HOUND,PRESSURE,SHOT,0,,0,0,3572
CRAT,111,WRITER{ENTER},TYPE,GHOST,SCREEN,1,writer{ENTER},4881,4,2539
CRAT,111,BOAT{ENTER},SHOW,LIFE,ROW,1,boat{ENTER},6721,4,4765
CRAT,111,PIT{ENTER},PEACH,ARM,TAR,0,,0,0,1860
CRAT,111,GIRL{ENTER},FLOWER,FRIEND,SCOUT,1,girl{ENTER},9546,4,1740
CRAT,111,FIGURE{ENTER},EIGHT,SKATE,STICK,1,figure{ENTER},10049,4,1485
CRAT,111,RING{ENTER},MASTER,TOSS,FINGER,1,ring{ENTER},13973,3,6247
CRAT,111,SOAP{ENTER},OPERA,HAND,DISH,1,soap{ENTER},8870,3,6292
CRAT,111,STREET{ENTER},MAIN,SWEEPER,LIGHT,0,,0,0,1689
CRAT,111,TURN{ENTER},PIKE,COAT,SIGNAL,0,lig,24800,0,3238
CRAT,111,CAMP{ENTER},BOOT,SUMMER,GROUND,1,camp{ENTER},5257,4,1189
CRAT,111,TREE{ENTER},PALM,SHOE,HOUSE,0,,0,0,1475
CRAT,111,RED{ENTER},CARPET,ALERT,INK,0,,0,0,9480
CRAT,111,,,,,,,,,
CRAT,111,,,,,,,,,
CRAT,111,,,,,,,,,
CRAT,111,,,,,,,,,
CRAT,111,,,,,,,,,
CRAT,111,,,,,,,,,
CRAT,110,,,,,,,,,
CRAT,110,,,,,,,,,
CRAT,110,,,,,,,,,
CRAT,110,,,,,,,,,
CRAT,110,,,,,,,,,
CRAT,110,PIT{ENTER},PEACH,ARM,TAR,0,SWEET{ENTER},7778,1,3824
CRAT,110,BOAT{ENTER},SHOW,LIFE,ROW,0,,15819,0,1566
CRAT,110,WALK{ENTER},WAY,BOARD,SLEEP,1,WALK{ENTER},13494,4,3116
CRAT,110,SAW{ENTER},MILL,TOOTH,DUST,0,{SPACE},24109,0,1521
CRAT,110,TREE{ENTER},PALM,SHOE,HOUSE,0,{SPACE},19051,0,3247
CRAT,110,GIRL{ENTER},FLOWER,FRIEND,SCOUT,0,BEST{ENTER},9213,1,2924
CRAT,110,TURN{ENTER},PIKE,COAT,SIGNAL,0,RACK{ENTER},7375,1,2894
CRAT,110,POWDER{ENTER},KEG,PUFF,ROOM,0,,0,0,3180
CRAT,110,RED{ENTER},CARPET,ALERT,INK,1,{SHIFT}RED{ENTER},4984,4,4256
CRAT,110,HOLE{ENTER},FOX,MAN,PEEP,0,,0,0,2379
CRAT,110,COMMON{ENTER},SENSE,COURTESY,PLACE,1,{SHIFT}COMMON{ENTER},4788,4,1700
CRAT,110,STATION{ENTER},WAGON,BREAK,RADIO,1,STATION{ENTER},11295,4,2597
CRAT,110,CAMP{ENTER},BOOT,SUMMER,GROUND,1,CAMP{ENTER},3320,4,1496
CRAT,110,SOAP{ENTER},OPERA,HAND,DISH,1,SOAP{ENTER},10205,4,4290
CRAT,110,SPACE{ENTER},CADET,CAPSULE,SHIP,0,WRECK{ENTER},9488,4,3460
CRAT,110,CALL{ENTER},CAT,NUMBER,PHONE,1,CALL{ENTER},6888,4,1421
CRAT,110,MOON{ENTER},SHINE,BEAM,STRUCK,0,WONDER{ENTER},13716,4,3985
CRAT,110,HEAD{ENTER},HAMMER,GEAR,HUNTER,0,,0,0,1701
CRAT,110,RING{ENTER},MASTER,TOSS,FINGER,0,,10757,0,1833
CRAT,110,MARK{ENTER},DOWN,QUESTION,CHECK,0,QUICK{ENTER},3557,4,1146
CRAT,110,SUIT{ENTER},WET,LAW,BUSINESS,0,SCHOOL{ENTER},12586,3,2008
CRAT,110,PAPER{ENTER},FLY,CLIP,WALL,0,,8662,0,1753
CRAT,110,BLOOD{ENTER},HOUND,PRESSURE,SHOT,0,UNDER{ENTER},2318,4,1130
CRAT,110,CHEESE{ENTER},COTTAGE,BRICK,CAKE,1,CHEESE{ENTER},3772,4,3896
CRAT,110,FIGURE{ENTER},EIGHT,SKATE,STICK,1,FIGURE{ENTER},5499,4,1404
CRAT,110,WRITER{ENTER},TYPE,GHOST,SCREEN,0,STORY{ENTER},6861,4,3058
CRAT,110,RACE{ENTER},HORSE,HUMAN,DRAG,0,,0,0,1775
CRAT,110,BRUSH{ENTER},SAGE,PAINT,HAIR,0,SPRAY{ENTER},12626,4,2014
CRAT,110,GOLD{ENTER},FISH,MINE,RUSH,0,HOUR{ENTER},4045,4,1357
CRAT,110,STREET{ENTER},MAIN,SWEEPER,LIGHT,0,STAGE{ENTER},9970,4,1393
CRAT,110,,,,,,,,,
CRAT,110,,,,,,,,,
CRAT,110,,,,,,,,,
CRAT,110,,,,,,,,,
CRAT,110,,,,,,,,,
CRAT,110,,,,,,,,,
CRAT,109,,,,,,,,,
CRAT,109,,,,,,,,,
CRAT,109,,,,,,,,,
CRAT,109,,,,,,,,,
CRAT,109,,,,,,,,,
CRAT,109,GOLD{ENTER},FISH,MINE,RUSH,0,RUSH{ENTER},14190,1,3047
CRAT,109,RACE{ENTER},HORSE,HUMAN,DRAG,0,HOREMAN{ENTER},6789,1,1518
CRAT,109,MARK{ENTER},DOWN,QUESTION,CHECK,0,HE{ENTER},10742,1,1043
CRAT,109,WALK{ENTER},WAY,BOARD,SLEEP,0,,0,0,2135
CRAT,109,STREET{ENTER},MAIN,SWEEPER,LIGHT,0,,0,0,1255
CRAT,109,POWDER{ENTER},KEG,PUFF,ROOM,0,STAND{ENTER},8316,0,1091
CRAT,109,BLOOD{ENTER},HOUND,PRESSURE,SHOT,0,,0,0,1103
CRAT,109,SAW{ENTER},MILL,TOOTH,DUST,0,,0,0,1187
CRAT,109,TREE{ENTER},PALM,SHOE,HOUSE,1,TREE{ENTER},6171,1,1103
CRAT,109,CAMP{ENTER},BOOT,SUMMER,GROUND,0,HOT{ENTER},21242,1,720
CRAT,109,BRUSH{ENTER},SAGE,PAINT,HAIR,0,,0,0,1339
CRAT,109,TURN{ENTER},PIKE,COAT,SIGNAL,0,,0,0,1116
CRAT,109,SOAP{ENTER},OPERA,HAND,DISH,0,,0,0,1190
CRAT,109,HEAD{ENTER},HAMMER,GEAR,HUNTER,0,EAR{ENTER},14064,1,1198
CRAT,109,PAPER{ENTER},FLY,CLIP,WALL,0,FLIP{ENTER},23626,1,874
CRAT,109,HOLE{ENTER},FOX,MAN,PEEP,0,,0,0,852
CRAT,109,RING{ENTER},MASTER,TOSS,FINGER,0,,0,0,1326
CRAT,109,RED{ENTER},CARPET,ALERT,INK,1,RED{ENTER},8785,1,788
CRAT,109,PIT{ENTER},PEACH,ARM,TAR,0,FUZZ{ENTER},4330,1,1022
CRAT,109,CHEESE{ENTER},COTTAGE,BRICK,CAKE,0,SQUARE{ENTER},10025,1,1062
CRAT,109,FIGURE{ENTER},EIGHT,SKATE,STICK,0,TICKS{ENTER},19240,1,838
CRAT,109,MOON{ENTER},SHINE,BEAM,STRUCK,0,LIGHT{ENTER},6467,1,874
CRAT,109,SPACE{ENTER},CADET,CAPSULE,SHIP,0,TEAM{ENTER},6191,1,1123
CRAT,109,SUIT{ENTER},WET,LAW,BUSINESS,0,FIRM{ENTER},4577,1,874
CRAT,109,WRITER{ENTER},TYPE,GHOST,SCREEN,0,PRONE{ENTER},19210,1,1130
CRAT,109,STATION{ENTER},WAGON,BREAK,RADIO,0,GRADE{ENTER},14509,1,920
CRAT,109,COMMON{ENTER},SENSE,COURTESY,PLACE,0,,0,0,2214
CRAT,109,CALL{ENTER},CAT,NUMBER,PHONE,0,TEEN{ENTER},24703,1,752
CRAT,109,BOAT{ENTER},SHOW,LIFE,ROW,0,LOW{ENTER},4035,1,1171
CRAT,109,GIRL{ENTER},FLOWER,FRIEND,SCOUT,0,FLOW{ENTER},24623,1,836
CRAT,109,,,,,,,,,
CRAT,109,,,,,,,,,
CRAT,109,,,,,,,,,
CRAT,109,,,,,,,,,
CRAT,109,,,,,,,,,
CRAT,109,,,,,,,,,
CRAT,108,,,,,,,,,
CRAT,108,,,,,,,,,
CRAT,108,,,,,,,,,
CRAT,108,,,,,,,,,
CRAT,108,,,,,,,,,
CRAT,108,WALK{ENTER},WAY,BOARD,SLEEP,0,HEAD{ENTER},6041,2,3875
CRAT,108,SOAP{ENTER},OPERA,HAND,DISH,1,SOAP{ENTER},3433,3,4882
CRAT,108,CALL{ENTER},CAT,NUMBER,PHONE,1,CALL{ENTER},5911,2,3511
CRAT,108,BRUSH{ENTER},SAGE,PAINT,HAIR,1,BRUSH{ENTER},2005,2,4798
CRAT,108,PAPER{ENTER},FLY,CLIP,WALL,0,HORSE{ENTER},21710,2,2368
CRAT,108,PIT{ENTER},PEACH,ARM,TAR,0,HAIR{ENTER},4885,2,12656
CRAT,108,MOON{ENTER},SHINE,BEAM,STRUCK,0,LIGHT{ENTER},14020,1,5284
CRAT,108,BOAT{ENTER},SHOW,LIFE,ROW,1,BOAT{ENTER},10195,2,8297
CRAT,108,MARK{ENTER},DOWN,QUESTION,CHECK,1,MARK{ENTER},1771,3,5294
CRAT,108,WRITER{ENTER},TYPE,GHOST,SCREEN,1,WRITER{ENTER},2550,3,9175
CRAT,108,RED{ENTER},CARPET,ALERT,INK,0,PEN{ENTER},9079,1,7468
CRAT,108,CAMP{ENTER},BOOT,SUMMER,GROUND,0,{ENTER},14707,0,1029
CRAT,108,GOLD{ENTER},FISH,MINE,RUSH,1,GOLD{ENTER},16000,1,2442
CRAT,108,SPACE{ENTER},CADET,CAPSULE,SHIP,0,TIME{ENTER},12524,2,3372
CRAT,108,FIGURE{ENTER},EIGHT,SKATE,STICK,0,,0,0,1753
CRAT,108,COMMON{ENTER},SENSE,COURTESY,PLACE,1,COMMON{ENTER},9635,2,4577
CRAT,108,GIRL{ENTER},FLOWER,FRIEND,SCOUT,0,BOY{ENTER},11331,2,4183
CRAT,108,POWDER{ENTER},KEG,PUFF,ROOM,0,BEER{ENTER},15557,1,3393
CRAT,108,TURN{ENTER},PIKE,COAT,SIGNAL,0,COAT{ENTER},7574,2,7373
CRAT,108,RACE{ENTER},HORSE,HUMAN,DRAG,0,DRAG{ENTER},1865,4,11128
CRAT,108,BLOOD{ENTER},HOUND,PRESSURE,SHOT,1,BLOOD{ENTER},8792,3,3914
CRAT,108,SAW{ENTER},MILL,TOOTH,DUST,0,{ENTER},21040,0,335
CRAT,108,TREE{ENTER},PALM,SHOE,HOUSE,0,,0,0,1593
CRAT,108,HOLE{ENTER},FOX,MAN,PEEP,0,,0,0,1309
CRAT,108,SUIT{ENTER},WET,LAW,BUSINESS,1,SUIT{ENTER},13823,3,4647
CRAT,108,STATION{ENTER},WAGON,BREAK,RADIO,0,,0,0,1230
CRAT,108,HEAD{ENTER},HAMMER,GEAR,HUNTER,0,DEER{ENTER},7774,2,10684
CRAT,108,CHEESE{ENTER},COTTAGE,BRICK,CAKE,0,HOUSE{ENTER},14080,1,2044
CRAT,108,RING{ENTER},MASTER,TOSS,FINGER,0,NAIL{ENTER},6669,4,2059
CRAT,108,STREET{ENTER},MAIN,SWEEPER,LIGHT,1,STREET{ENTER},2752,4,1336
CRAT,108,,,,,,,,,
CRAT,108,,,,,,,,,
CRAT,108,,,,,,,,,
CRAT,108,,,,,,,,,
CRAT,108,,,,,,,,,
CRAT,108,,,,,,,,,
CRAT,107,,,,,,,,,
CRAT,107,,,,,,,,,
CRAT,107,,,,,,,,,
CRAT,107,,,,,,,,,
CRAT,107,,,,,,,,,
CRAT,107,STATION{ENTER},WAGON,BREAK,RADIO,0,wagon{ENTER},3964,2,5375
CRAT,107,STREET{ENTER},MAIN,SWEEPER,LIGHT,0,main{ENTER},4887,4,1635
CRAT,107,SAW{ENTER},MILL,TOOTH,DUST,0,dust{ENTER},3841,3,1306
CRAT,107,RACE{ENTER},HORSE,HUMAN,DRAG,0,drag{ENTER},4208,4,2393
CRAT,107,COMMON{ENTER},SENSE,COURTESY,PLACE,0,sense{ENTER},5559,2,1670
CRAT,107,CAMP{ENTER},BOOT,SUMMER,GROUND,0,summer{ENTER},1937,3,3756
CRAT,107,BOAT{ENTER},SHOW,LIFE,ROW,0,show{ENTER},2616,2,12119
CRAT,107,HEAD{ENTER},HAMMER,GEAR,HUNTER,1,hammerhead{ENTER},3823,4,4233
CRAT,107,HOLE{ENTER},FOX,MAN,PEEP,1,manhole{ENTER},4190,1,1736
CRAT,107,BRUSH{ENTER},SAGE,PAINT,HAIR,0,hairspray{ENTER},4284,3,1665
CRAT,107,WRITER{ENTER},TYPE,GHOST,SCREEN,0,screensaver{ENTER},6474,4,1937
CRAT,107,PAPER{ENTER},FLY,CLIP,WALL,1,wallpaper{ENTER},4837,4,1890
CRAT,107,TREE{ENTER},PALM,SHOE,HOUSE,1,palmtree{ENTER},4773,3,4582
CRAT,107,PIT{ENTER},PEACH,ARM,TAR,0,armchair{ENTER},4079,3,1917
CRAT,107,RED{ENTER},CARPET,ALERT,INK,0,inkprint{ENTER},23933,1,1230
CRAT,107,CHEESE{ENTER},COTTAGE,BRICK,CAKE,0,brickyard{ENTER},7958,2,2156
CRAT,107,CALL{ENTER},CAT,NUMBER,PHONE,0,,10451,0,3494
CRAT,107,BLOOD{ENTER},HOUND,PRESSURE,SHOT,0,hounddog{ENTER},6875,4,1504
CRAT,107,POWDER{ENTER},KEG,PUFF,ROOM,0,creampuff{ENTER},17753,2,1351
CRAT,107,MARK{ENTER},DOWN,QUESTION,CHECK,0,checkout{ENTER},3548,4,1217
CRAT,107,GIRL{ENTER},FLOWER,FRIEND,SCOUT,0,bestfriend{ENTER},6442,3,1698
CRAT,107,GOLD{ENTER},FISH,MINE,RUSH,1,goldrush{ENTER},3943,3,1035
CRAT,107,SOAP{ENTER},OPERA,HAND,DISH,0,handheld{ENTER},5744,4,1383
CRAT,107,MOON{ENTER},SHINE,BEAM,STRUCK,0,lightbeam{ENTER},12425,2,1613
CRAT,107,SUIT{ENTER},WET,LAW,BUSINESS,0,lawman{ENTER},3499,3,1315
CRAT,107,RING{ENTER},MASTER,TOSS,FINGER,1,ringtoss{ENTER},11606,4,2030
CRAT,107,FIGURE{ENTER},EIGHT,SKATE,STICK,0,twentyeight{ENTER},14683,4,1486
CRAT,107,TURN{ENTER},PIKE,COAT,SIGNAL,0,smokesignal{ENTER},7553,4,953
CRAT,107,SPACE{ENTER},CADET,CAPSULE,SHIP,0,shipwreck{ENTER},6239,3,1455
CRAT,107,WALK{ENTER},WAY,BOARD,SLEEP,0,oneway{ENTER},3764,3,1696
CRAT,107,,,,,,,,,
CRAT,107,,,,,,,,,
CRAT,107,,,,,,,,,
CRAT,107,,,,,,,,,
CRAT,107,,,,,,,,,
CRAT,107,,,,,,,,,
CRAT,106,,,,,,,,,
CRAT,106,,,,,,,,,
CRAT,106,,,,,,,,,
CRAT,106,,,,,,,,,
CRAT,106,,,,,,,,,
CRAT,106,SAW{ENTER},MILL,TOOTH,DUST,0,{CAPSLOCK}{CAPSLOCK}BRUSH{ENTER},10484,1,1580
CRAT,106,SUIT{ENTER},WET,LAW,BUSINESS,0,{CAPSLOCK}{CAPSLOCK}MAN{ENTER},6085,2,2940
CRAT,106,MARK{ENTER},DOWN,QUESTION,CHECK,0,BOOK{ENTER},18206,1,1993
CRAT,106,COMMON{ENTER},SENSE,COURTESY,PLACE,0,{ENTER},7623,0,1324
CRAT,106,PAPER{ENTER},FLY,CLIP,WALL,0,{ENTER},9796,0,1227
CRAT,106,RING{ENTER},MASTER,TOSS,FINGER,0,{ENTER},8577,0,1293
CRAT,106,SPACE{ENTER},CADET,CAPSULE,SHIP,0,{CAPSLOCK}a{CAPSLOCK}{CAPSLOCK}rmy{ENTER},8651,3,3076
CRAT,106,MOON{ENTER},SHINE,BEAM,STRUCK,0,{CAPSLOCK}L{CAPSLOCK}ight{ENTER},5575,3,4501
CRAT,106,FIGURE{ENTER},EIGHT,SKATE,STICK,0,{ENTER},13386,0,1430
CRAT,106,BRUSH{ENTER},SAGE,PAINT,HAIR,0,color{ENTER},6660,3,5315
CRAT,106,HOLE{ENTER},FOX,MAN,PEEP,0,{ENTER},8705,0,1112
CRAT,106,TREE{ENTER},PALM,SHOE,HOUSE,0,beach{ENTER},5463,1,2137
CRAT,106,STREET{ENTER},MAIN,SWEEPER,LIGHT,0,house{ENTER},13466,1,1491
CRAT,106,CHEESE{ENTER},COTTAGE,BRICK,CAKE,0,home{ENTER},10033,1,4957
CRAT,106,STATION{ENTER},WAGON,BREAK,RADIO,0,,0,0,4195
CRAT,106,GOLD{ENTER},FISH,MINE,RUSH,0,men{ENTER},2302,1,1162
CRAT,106,TURN{ENTER},PIKE,COAT,SIGNAL,0,{ENTER},19882,0,2332
CRAT,106,RED{ENTER},CARPET,ALERT,INK,0,{ENTER},10298,0,1196
CRAT,106,WRITER{ENTER},TYPE,GHOST,SCREEN,0,white{ENTER},14657,1,2758
CRAT,106,PIT{ENTER},PEACH,ARM,TAR,0,sweet{ENTER},14149,1,1006
CRAT,106,GIRL{ENTER},FLOWER,FRIEND,SCOUT,1,girl{ENTER},4081,1,2096
CRAT,106,BOAT{ENTER},SHOW,LIFE,ROW,0,{ENTER},1137,0,1343
CRAT,106,WALK{ENTER},WAY,BOARD,SLEEP,0,cycle{ENTER},13723,1,2999
CRAT,106,RACE{ENTER},HORSE,HUMAN,DRAG,0,heavy{ENTER},2889,1,2315
CRAT,106,CAMP{ENTER},BOOT,SUMMER,GROUND,1,camp{ENTER},5852,4,3598
CRAT,106,BLOOD{ENTER},HOUND,PRESSURE,SHOT,0,shot{ENTER},2710,3,5056
CRAT,106,SOAP{ENTER},OPERA,HAND,DISH,1,soap{ENTER},3292,4,2028
CRAT,106,HEAD{ENTER},HAMMER,GEAR,HUNTER,0,hammer{ENTER},8260,1,1966
CRAT,106,CALL{ENTER},CAT,NUMBER,PHONE,1,call{ENTER},2845,1,1025
CRAT,106,POWDER{ENTER},KEG,PUFF,ROOM,0,{ENTER},1137,0,1551
CRAT,106,,,,,,,,,
CRAT,106,,,,,,,,,
CRAT,106,,,,,,,,,
CRAT,106,,,,,,,,,
CRAT,106,,,,,,,,,
CRAT,106,,,,,,,,,
CRAT,105,,,,,,,,,
CRAT,105,,,,,,,,,
CRAT,105,,,,,,,,,
CRAT,105,,,,,,,,,
CRAT,105,,,,,,,,,
CRAT,105,TREE{ENTER},PALM,SHOE,HOUSE,1,TREE{ENTER},7698,2,2196
CRAT,105,BLOOD{ENTER},HOUND,PRESSURE,SHOT,0,BIG{ENTER},16431,1,3974
CRAT,105,BRUSH{ENTER},SAGE,PAINT,HAIR,0,SPRAY{ENTER},3849,3,5377
CRAT,105,BOAT{ENTER},SHOW,LIFE,ROW,1,BOAT{ENTER},7177,4,1089
CRAT,105,GOLD{ENTER},FISH,MINE,RUSH,0,HOUR{ENTER},6992,3,2833
CRAT,105,MOON{ENTER},SHINE,BEAM,STRUCK,0,SUN{ENTER},5825,3,2132
CRAT,105,PAPER{ENTER},FLY,CLIP,WALL,0,HAIR{ENTER},8727,3,3483
CRAT,105,HEAD{ENTER},HAMMER,GEAR,HUNTER,1,HEAD{ENTER},7464,2,3700
CRAT,105,STATION{ENTER},WAGON,BREAK,RADIO,0,RED{ENTER},12027,1,3185
CRAT,105,CALL{ENTER},CAT,NUMBER,PHONE,0,,0,0,1365
CRAT,105,SPACE{ENTER},CADET,CAPSULE,SHIP,1,SPACE{ENTER},2484,4,1288
CRAT,105,WRITER{ENTER},TYPE,GHOST,SCREEN,1,WRITER{ENTER},2601,4,1207
CRAT,105,RING{ENTER},MASTER,TOSS,FINGER,1,RING{ENTER},1968,4,1019
CRAT,105,SUIT{ENTER},WET,LAW,BUSINESS,0,MAN{ENTER},11700,2,2408
CRAT,105,HOLE{ENTER},FOX,MAN,PEEP,0,,0,0,2070
CRAT,105,POWDER{ENTER},KEG,PUFF,ROOM,0,STAND{ENTER},9267,1,1808
CRAT,105,RACE{ENTER},HORSE,HUMAN,DRAG,1,RACE{ENTER},2382,1,2598
CRAT,105,CAMP{ENTER},BOOT,SUMMER,GROUND,0,,0,0,2552
CRAT,105,WALK{ENTER},WAY,BOARD,SLEEP,1,WALK{ENTER},11975,4,2159
CRAT,105,TURN{ENTER},PIKE,COAT,SIGNAL,1,TURN{ENTER},10280,1,2410
CRAT,105,MARK{ENTER},DOWN,QUESTION,CHECK,0,RAIN{ENTER},14636,3,3232
CRAT,105,SOAP{ENTER},OPERA,HAND,DISH,1,SOAP{ENTER},2028,4,1299
CRAT,105,CHEESE{ENTER},COTTAGE,BRICK,CAKE,0,CUP{ENTER},10269,2,3023
CRAT,105,COMMON{ENTER},SENSE,COURTESY,PLACE,0,,0,0,3340
CRAT,105,GIRL{ENTER},FLOWER,FRIEND,SCOUT,1,GIRL{ENTER},4921,4,1444
CRAT,105,RED{ENTER},CARPET,ALERT,INK,1,RED{ENTER},2271,4,8188
CRAT,105,PIT{ENTER},PEACH,ARM,TAR,0,,0,0,1453
CRAT,105,FIGURE{ENTER},EIGHT,SKATE,STICK,0,HOCKEY{ENTER},14418,2,2512
CRAT,105,STREET{ENTER},MAIN,SWEEPER,LIGHT,0,,0,0,1602
CRAT,105,SAW{ENTER},MILL,TOOTH,DUST,0,BRUSH{ENTER},9476,3,2841
CRAT,105,,,,,,,,,
CRAT,105,,,,,,,,,
CRAT,105,,,,,,,,,
CRAT,105,,,,,,,,,
CRAT,105,,,,,,,,,
CRAT,105,,,,,,,,,
CRAT,104,,,,,,,,,
CRAT,104,,,,,,,,,
CRAT,104,,,,,,,,,
CRAT,104,,,,,,,,,
CRAT,104,,,,,,,,,
CRAT,104,RING{ENTER},MASTER,TOSS,FINGER,1,RING,2135,4,5514
CRAT,104,SAW{ENTER},MILL,TOOTH,DUST,1,SAW,1424,3,3507
CRAT,104,HOLE{ENTER},FOX,MAN,PEEP,1,HOLE,1559,3,2059
CRAT,104,RACE{ENTER},HORSE,HUMAN,DRAG,0,WATER,2927,1,7538
CRAT,104,CHEESE{ENTER},COTTAGE,BRICK,CAKE,0,TOP,1675,1,2527
CRAT,104,CALL{ENTER},CAT,NUMBER,PHONE,1,CALL,2450,2,4917
CRAT,104,TURN{ENTER},PIKE,COAT,SIGNAL,1,TURN,1532,3,2351
CRAT,104,SUIT{ENTER},WET,LAW,BUSINESS,0,SCHOOL,4216,1,2923
CRAT,104,BOAT{ENTER},SHOW,LIFE,ROW,0,PERFORMANCE,4264,1,2444
CRAT,104,POWDER{ENTER},KEG,PUFF,ROOM,0,STAND,3701,3,4553
CRAT,104,SOAP{ENTER},OPERA,HAND,DISH,1,SOAP,4422,4,4522
CRAT,104,PAPER{ENTER},FLY,CLIP,WALL,0,FIRE,1589,3,2057
CRAT,104,STREET{ENTER},MAIN,SWEEPER,LIGHT,1,STREET,1861,4,2441
CRAT,104,BLOOD{ENTER},HOUND,PRESSURE,SHOT,0,WOUND,1375,2,5395
CRAT,104,BRUSH{ENTER},SAGE,PAINT,HAIR,1,BRUSH,2037,3,2729
CRAT,104,WALK{ENTER},WAY,BOARD,SLEEP,0,SURF,9742,2,2897
CRAT,104,HEAD{ENTER},HAMMER,GEAR,HUNTER,0,SLEDGE,2762,2,4766
CRAT,104,GOLD{ENTER},FISH,MINE,RUSH,1,GOLD,939,3,2559
CRAT,104,FIGURE{ENTER},EIGHT,SKATE,STICK,0,ROLLER,1050,2,4318
CRAT,104,COMMON{ENTER},SENSE,COURTESY,PLACE,0,SIXTH,2343,1,2571
CRAT,104,MARK{ENTER},DOWN,QUESTION,CHECK,0,DOUBLE,1919,2,2402
CRAT,104,PIT{ENTER},PEACH,ARM,TAR,0,HAIR,3258,1,3038
CRAT,104,TREE{ENTER},PALM,SHOE,HOUSE,1,TREE,3204,2,11175
CRAT,104,STATION{ENTER},WAGON,BREAK,RADIO,0,WHEEL,2847,2,4290
CRAT,104,SPACE{ENTER},CADET,CAPSULE,SHIP,0,TIME,1542,2,2601
CRAT,104,RED{ENTER},CARPET,ALERT,INK,1,RED,1121,2,4581
CRAT,104,WRITER{ENTER},TYPE,GHOST,SCREEN,0,SCARY,1191,2,2331
CRAT,104,CAMP{ENTER},BOOT,SUMMER,GROUND,1,CAMP,795,3,3262
CRAT,104,GIRL{ENTER},FLOWER,FRIEND,SCOUT,1,GIRL,3158,3,3098
CRAT,104,MOON{ENTER},SHINE,BEAM,STRUCK,0,LIGHT,987,2,4255
CRAT,104,,,,,,,,,
CRAT,104,,,,,,,,,
CRAT,104,,,,,,,,,
CRAT,104,,,,,,,,,
CRAT,104,,,,,,,,,
CRAT,104,,,,,,,,,
CRAT,103,,,,,,,,,
CRAT,103,,,,,,,,,
CRAT,103,,,,,,,,,
CRAT,103,,,,,,,,,
CRAT,103,,,,,,,,,
CRAT,103,POWDER{ENTER},KEG,PUFF,ROOM,0,BED{ENTER},3155,3,6074
CRAT,103,GIRL{ENTER},FLOWER,FRIEND,SCOUT,1,GIRL{ENTER},2309,2,1648
CRAT,103,TREE{ENTER},PALM,SHOE,HOUSE,0,TR,24788,0,4648
CRAT,103,BOAT{ENTER},SHOW,LIFE,ROW,0,TIME{ENTER},7884,2,1717
CRAT,103,MOON{ENTER},SHINE,BEAM,STRUCK,0,THUNDER{ENTER},7911,2,1392
CRAT,103,PAPER{ENTER},FLY,CLIP,WALL,0,FIRE{ENTER},6627,3,4467
CRAT,103,CAMP{ENTER},BOOT,SUMMER,GROUND,0,WORK{ENTER},9608,2,1351
CRAT,103,COMMON{ENTER},SENSE,COURTESY,PLACE,0,FIRE{ENTER},11318,0,1755
CRAT,103,SOAP{ENTER},OPERA,HAND,DISH,0,{ENTER},8055,0,1929
CRAT,103,PIT{ENTER},PEACH,ARM,TAR,1,PIT{ENTER},1243,1,613
CRAT,103,SPACE{ENTER},CADET,CAPSULE,SHIP,0,,0,0,2675
CRAT,103,SAW{ENTER},MILL,TOOTH,DUST,0,BRUSH{ENTER},4727,2,345
CRAT,103,BLOOD{ENTER},HOUND,PRESSURE,SHOT,1,BLOOD{ENTER},23222,2,4375
CRAT,103,WALK{ENTER},WAY,BOARD,SLEEP,1,WALK{ENTER},1506,1,528
CRAT,103,RACE{ENTER},HORSE,HUMAN,DRAG,0,{ENTER},9131,0,1711
CRAT,103,WRITER{ENTER},TYPE,GHOST,SCREEN,0,{ENTER},18963,0,1692
CRAT,103,HOLE{ENTER},FOX,MAN,PEEP,0,{ENTER},19041,0,967
CRAT,103,BRUSH{ENTER},SAGE,PAINT,HAIR,1,BRUSH{ENTER},1760,1,451
CRAT,103,CHEESE{ENTER},COTTAGE,BRICK,CAKE,1,CHEESE{ENTER},8437,2,1543
CRAT,103,STATION{ENTER},WAGON,BREAK,RADIO,1,STATION{ENTER},7756,2,267
CRAT,103,STREET{ENTER},MAIN,SWEEPER,LIGHT,1,STREET{ENTER},5979,2,903
CRAT,103,SUIT{ENTER},WET,LAW,BUSINESS,0,{ENTER},24933,0,587
CRAT,103,CALL{ENTER},CAT,NUMBER,PHONE,1,CALL{ENTER},11333,2,1226
CRAT,103,FIGURE{ENTER},EIGHT,SKATE,STICK,0,{ENTER},13083,0,644
CRAT,103,TURN{ENTER},PIKE,COAT,SIGNAL,0,WI{LEFTBRACKET}{LEFTBRACE}ND{ENTER},16696,1,3476
CRAT,103,MARK{ENTER},DOWN,QUESTION,CHECK,1,MARK{ENTER},6050,3,1275
CRAT,103,GOLD{ENTER},FISH,MINE,RUSH,0,{ENTER},6903,0,858
CRAT,103,HEAD{ENTER},HAMMER,GEAR,HUNTER,1,HEAD{ENTER},4808,2,663
CRAT,103,RING{ENTER},MASTER,TOSS,FINGER,0,KEY{ENTER},5524,2,2340
CRAT,103,RED{ENTER},CARPET,ALERT,INK,0,{ENTER},486,0,1153
CRAT,103,,,,,,,,,
CRAT,103,,,,,,,,,
CRAT,103,,,,,,,,,
CRAT,103,,,,,,,,,
CRAT,103,,,,,,,,,
CRAT,103,,,,,,,,,
CRAT,102,,,,,,,,,
CRAT,102,,,,,,,,,
CRAT,102,,,,,,,,,
CRAT,102,,,,,,,,,
CRAT,102,,,,,,,,,
CRAT,102,SPACE{ENTER},CADET,CAPSULE,SHIP,0,{SHIFT}{SHIFT}{SHIFT}{SHIFT},24443,0,8975
CRAT,102,WRITER{ENTER},TYPE,GHOST,SCREEN,0,{SHIFT}{SHIFT},22183,0,3643
CRAT,102,CALL{ENTER},CAT,NUMBER,PHONE,1,CALL{ENTER},16579,3,6436
CRAT,102,HOLE{ENTER},FOX,MAN,PEEP,0,,18460,0,1791
CRAT,102,HEAD{ENTER},HAMMER,GEAR,HUNTER,0,METAL{ENTER},19054,1,1987
CRAT,102,MARK{ENTER},DOWN,QUESTION,CHECK,0,PAPER{ENTER},12711,1,2063
CRAT,102,WALK{ENTER},WAY,BOARD,SLEEP,0,{ENTER},24877,0,1318
CRAT,102,GOLD{ENTER},FISH,MINE,RUSH,0,,0,0,2578
CRAT,102,PIT{ENTER},PEACH,ARM,TAR,0,CHAIR{ENTER},5545,4,5384
CRAT,102,RING{ENTER},MASTER,TOSS,FINGER,0,COIN{ENTER},11924,1,4606
CRAT,102,SOAP{ENTER},OPERA,HAND,DISH,0,WASH{ENTER},5736,1,4463
CRAT,102,FIGURE{ENTER},EIGHT,SKATE,STICK,0,ICE{ENTER},15684,4,5019
CRAT,102,GIRL{ENTER},FLOWER,FRIEND,SCOUT,0,{ENTER},20281,0,1146
CRAT,102,TURN{ENTER},PIKE,COAT,SIGNAL,0,,0,0,2004
CRAT,102,RED{ENTER},CARPET,ALERT,INK,1,RED{ENTER},4087,4,2773
CRAT,102,STATION{ENTER},WAGON,BREAK,RADIO,0,TALL{ENTER},21082,4,4775
CRAT,102,BOAT{ENTER},SHOW,LIFE,ROW,0,{ENTER},19280,0,1035
CRAT,102,POWDER{ENTER},KEG,PUFF,ROOM,0,SHORT{ENTER},10401,1,2813
CRAT,102,PAPER{ENTER},FLY,CLIP,WALL,0,HIGH{ENTER},14524,4,5206
CRAT,102,BRUSH{ENTER},SAGE,PAINT,HAIR,0,{ENTER},17214,0,1315
CRAT,102,MOON{ENTER},SHINE,BEAM,STRUCK,0,SUN{ENTER},13141,1,4378
CRAT,102,BLOOD{ENTER},HOUND,PRESSURE,SHOT,0,GUN{ENTER},18671,1,2917
CRAT,102,COMMON{ENTER},SENSE,COURTESY,PLACE,0,{ENTER},15098,0,234
CRAT,102,TREE{ENTER},PALM,SHOE,HOUSE,1,TREE{ENTER},7848,4,4787
CRAT,102,CAMP{ENTER},BOOT,SUMMER,GROUND,1,CAMP{ENTER},4081,4,2687
CRAT,102,RACE{ENTER},HORSE,HUMAN,DRAG,1,RACE{ENTER},4876,2,1848
CRAT,102,SUIT{ENTER},WET,LAW,BUSINESS,0,{ENTER},1285,0,349
CRAT,102,SAW{ENTER},MILL,TOOTH,DUST,0,PASTE{ENTER},4816,4,3935
CRAT,102,STREET{ENTER},MAIN,SWEEPER,LIGHT,0,{ENTER},966,0,907
CRAT,102,CHEESE{ENTER},COTTAGE,BRICK,CAKE,0,HOUSE{ENTER},11479,4,1797
CRAT,102,,,,,,,,,
CRAT,102,,,,,,,,,
CRAT,102,,,,,,,,,
CRAT,102,,,,,,,,,
CRAT,102,,,,,,,,,
CRAT,102,,,,,,,,,
CRAT,101,,,,,,,,,
CRAT,101,,,,,,,,,
CRAT,101,,,,,,,,,
CRAT,101,,,,,,,,,
CRAT,101,,,,,,,,,
CRAT,101,CHEESE{ENTER},COTTAGE,BRICK,CAKE,1,CHEESE{ENTER},9136,2,4948
CRAT,101,HEAD{ENTER},HAMMER,GEAR,HUNTER,0,TIME,23661,0,6769
CRAT,101,SAW{ENTER},MILL,TOOTH,DUST,0,BRUSH{ENTER},11166,3,6089
CRAT,101,GIRL{ENTER},FLOWER,FRIEND,SCOUT,0,SHIP{ENTER},15050,3,3516
CRAT,101,CALL{ENTER},CAT,NUMBER,PHONE,0,,0,0,784
CRAT,101,SOAP{ENTER},OPERA,HAND,DISH,1,SOAP{ENTER},4585,1,3410
CRAT,101,COMMON{ENTER},SENSE,COURTESY,PLACE,0,HUMAN{ENTER},19382,3,2780
CRAT,101,HOLE{ENTER},FOX,MAN,PEEP,0,TROT{ENTER},18571,3,2501
CRAT,101,STREET{ENTER},MAIN,SWEEPER,LIGHT,0,BEER{ENTER},14341,3,2375
CRAT,101,GOLD{ENTER},FISH,MINE,RUSH,1,GOLD{ENTER},4624,1,3015
CRAT,101,BRUSH{ENTER},SAGE,PAINT,HAIR,0,DRYER,12743,0,2955
CRAT,101,RING{ENTER},MASTER,TOSS,FINGER,0,GAMES{ENTER},14843,2,5367
CRAT,101,WALK{ENTER},WAY,BOARD,SLEEP,0,SKATE{ENTER},10896,1,3911
CRAT,101,CAMP{ENTER},BOOT,SUMMER,GROUND,1,CAMP{ENTER},8541,1,1353
CRAT,101,RED{ENTER},CARPET,ALERT,INK,0,JET{ENTER},13529,3,2286
CRAT,101,TREE{ENTER},PALM,SHOE,HOUSE,1,TREE{ENTER},15455,1,1600
CRAT,101,WRITER{ENTER},TYPE,GHOST,SCREEN,0,SCARE{ENTER},13830,2,3197
CRAT,101,POWDER{ENTER},KEG,PUFF,ROOM,0,BEER{ENTER},8433,2,1427
CRAT,101,RACE{ENTER},HORSE,HUMAN,DRAG,1,RACE{ENTER},2493,1,3200
CRAT,101,MOON{ENTER},SHINE,BEAM,STRUCK,0,SUN{ENTER},15298,2,1674
CRAT,101,MARK{ENTER},DOWN,QUESTION,CHECK,0,TOWN{ENTER},16296,2,981
CRAT,101,SPACE{ENTER},CADET,CAPSULE,SHIP,1,SPACE{ENTER},4371,1,3365
CRAT,101,TURN{ENTER},PIKE,COAT,SIGNAL,0,RACK{ENTER},12226,2,1359
CRAT,101,STATION{ENTER},WAGON,BREAK,RADIO,0,SIGNAL{ENTER},16626,2,4273
CRAT,101,BOAT{ENTER},SHOW,LIFE,ROW,1,BOAT{ENTER},3530,1,1937
CRAT,101,SUIT{ENTER},WET,LAW,BUSINESS,0,OFFICE{ENTER},9784,2,1743
CRAT,101,PIT{ENTER},PEACH,ARM,TAR,1,PIT{ENTER},1619,1,2460
CRAT,101,FIGURE{ENTER},EIGHT,SKATE,STICK,0,HOCKEY{ENTER},12813,1,9137
CRAT,101,PAPER{ENTER},FLY,CLIP,WALL,1,PAPER{ENTER},4374,1,1880
CRAT,101,BLOOD{ENTER},HOUND,PRESSURE,SHOT,0,,17421,0,1393
CRAT,101,,,,,,,,,
CRAT,101,,,,,,,,,
CRAT,101,,,,,,,,,
CRAT,101,,,,,,,,,
CRAT,101,,,,,,,,,
CRAT,101,,,,,,,,,
CRAT,122,,,,,,,,,
CRAT,122,,,,,,,,,
CRAT,122,,,,,,,,,
CRAT,122,,,,,,,,,
CRAT,122,,,,,,,,,
CRAT,122,SPACE{ENTER},CADET,CAPSULE,SHIP,1,SPACE{ENTER},2306,4,1357
CRAT,122,RACE{ENTER},HORSE,HUMAN,DRAG,1,RACE{ENTER},8304,3,984
CRAT,122,RING{ENTER},MASTER,TOSS,FINGER,1,RING{ENTER},3456,4,1402
CRAT,122,GIRL{ENTER},FLOWER,FRIEND,SCOUT,1,GIRL{ENTER},5520,2,1519
CRAT,122,RED{ENTER},CARPET,ALERT,INK,0,,0,0,2000
CRAT,122,CHEESE{ENTER},COTTAGE,BRICK,CAKE,0,WALK{ENTER},20156,1,3634
CRAT,122,BOAT{ENTER},SHOW,LIFE,ROW,0,TIME{ENTER},13833,2,2001
CRAT,122,SOAP{ENTER},OPERA,HAND,DISH,0,SOA,24996,1,2279
CRAT,122,HOLE{ENTER},FOX,MAN,PEEP,1,HOLE{ENTER},1769,4,1852
CRAT,122,MARK{ENTER},DOWN,QUESTION,CHECK,1,MARK{ENTER},2008,3,1312
CRAT,122,BRUSH{ENTER},SAGE,PAINT,HAIR,0,TYE,24456,0,1549
CRAT,122,MOON{ENTER},SHINE,BEAM,STRUCK,0,DOWN{ENTER},9431,2,2334
CRAT,122,STATION{ENTER},WAGON,BREAK,RADIO,0,SILENCE{ENTER},22990,2,2137
CRAT,122,WRITER{ENTER},TYPE,GHOST,SCREEN,1,WRITER{ENTER},1690,4,1008
CRAT,122,CALL{ENTER},CAT,NUMBER,PHONE,1,CALL{ENTER},6168,3,1228
CRAT,122,PIT{ENTER},PEACH,ARM,TAR,0,TREE{ENTER},9933,3,1437
CRAT,122,STREET{ENTER},MAIN,SWEEPER,LIGHT,0,STAGE{ENTER},8666,3,1410
CRAT,122,COMMON{ENTER},SENSE,COURTESY,PLACE,1,COMMON{ENTER},2619,4,1577
CRAT,122,POWDER{ENTER},KEG,PUFF,ROOM,1,POWDER{ENTER},2031,4,2215
CRAT,122,FIGURE{ENTER},EIGHT,SKATE,STICK,1,FIGURE{ENTER},1830,4,838
CRAT,122,GOLD{ENTER},FISH,MINE,RUSH,1,GOLD{ENTER},11148,2,1623
CRAT,122,SAW{ENTER},MILL,TOOTH,DUST,1,SAW{ENTER},2768,3,1608
CRAT,122,PAPER{ENTER},FLY,CLIP,WALL,0,,0,0,2290
CRAT,122,TREE{ENTER},PALM,SHOE,HOUSE,0,,0,0,1327
CRAT,122,BLOOD{ENTER},HOUND,PRESSURE,SHOT,1,BLOOD{ENTER},6712,3,1587
CRAT,122,CAMP{ENTER},BOOT,SUMMER,GROUND,1,CAMP{ENTER},1849,4,1992
CRAT,122,WALK{ENTER},WAY,BOARD,SLEEP,0,NO{ENTER},13414,2,1648
CRAT,122,HEAD{ENTER},HAMMER,GEAR,HUNTER,1,HEAD{ENTER},8323,3,1546
CRAT,122,TURN{ENTER},PIKE,COAT,SIGNAL,0,RADIUS{ENTER},13756,3,1224
CRAT,122,SUIT{ENTER},WET,LAW,BUSINESS,1,SUIT{ENTER},5297,3,603
CRAT,122,,,,,,,,,
CRAT,122,,,,,,,,,
CRAT,122,,,,,,,,,
CRAT,122,,,,,,,,,
CRAT,122,,,,,,,,,
CRAT,122,,,,,,,,,
CRAT,123,,,,,,,,,
CRAT,123,,,,,,,,,
CRAT,123,,,,,,,,,
CRAT,123,,,,,,,,,
CRAT,123,,,,,,,,,
CRAT,123,FIGURE{ENTER},EIGHT,SKATE,STICK,0,{ENTER},21737,0,1866
CRAT,123,TREE{ENTER},PALM,SHOE,HOUSE,1,TREE{ENTER},6909,1,5905
CRAT,123,MARK{ENTER},DOWN,QUESTION,CHECK,1,MARK{ENTER},8713,1,1662
CRAT,123,COMMON{ENTER},SENSE,COURTESY,PLACE,1,COMMON{ENTER},3562,3,5039
CRAT,123,SPACE{ENTER},CADET,CAPSULE,SHIP,1,SPACE{ENTER},4186,4,3588
CRAT,123,GOLD{ENTER},FISH,MINE,RUSH,0,NET{ENTER},6250,1,2154
CRAT,123,PIT{ENTER},PEACH,ARM,TAR,0,FUZZ{ENTER},3389,1,1578
CRAT,123,BLOOD{ENTER},HOUND,PRESSURE,SHOT,0,SENSE{ENTER},12245,1,1858
CRAT,123,CALL{ENTER},CAT,NUMBER,PHONE,0,FIGHT{ENTER},6718,1,1450
CRAT,123,HEAD{ENTER},HAMMER,GEAR,HUNTER,1,HEAD{ENTER},1267,1,1259
CRAT,123,WRITER{ENTER},TYPE,GHOST,SCREEN,1,WRITER{ENTER},6838,1,1293
CRAT,123,PAPER{ENTER},FLY,CLIP,WALL,0,,0,0,1708
CRAT,123,BRUSH{ENTER},SAGE,PAINT,HAIR,0,DYE{ENTER},1339,1,1280
CRAT,123,RING{ENTER},MASTER,TOSS,FINGER,0,FIGHTER{ENTER},6015,1,1018
CRAT,123,MOON{ENTER},SHINE,BEAM,STRUCK,0,STAR{ENTER},3826,2,4107
CRAT,123,WALK{ENTER},WAY,BOARD,SLEEP,0,WAKE{ENTER},1536,1,1453
CRAT,123,HOLE{ENTER},FOX,MAN,PEEP,0,SHOW{ENTER},10164,1,1450
CRAT,123,RACE{ENTER},HORSE,HUMAN,DRAG,0,QUEEN{ENTER},2515,1,1174
CRAT,123,GIRL{ENTER},FLOWER,FRIEND,SCOUT,1,GIRL{ENTER},1800,1,1514
CRAT,123,TURN{ENTER},PIKE,COAT,SIGNAL,0,SUAGR{ENTER},3989,1,1256
CRAT,123,BOAT{ENTER},SHOW,LIFE,ROW,0,DEATH{ENTER},6264,1,1240
CRAT,123,POWDER{ENTER},KEG,PUFF,ROOM,0,SMOEK{ENTER},3076,1,1022
CRAT,123,CHEESE{ENTER},COTTAGE,BRICK,CAKE,0,{ENTER},5353,1,1295
CRAT,123,STATION{ENTER},WAGON,BREAK,RADIO,0,WHEEL{ENTER},3364,1,1154
CRAT,123,RED{ENTER},CARPET,ALERT,INK,1,RED{ENTER},1148,3,3545
CRAT,123,SAW{ENTER},MILL,TOOTH,DUST,0,WIND{ENTER},1314,1,1545
CRAT,123,CAMP{ENTER},BOOT,SUMMER,GROUND,0,{ENTER},8144,0,1055
CRAT,123,STREET{ENTER},MAIN,SWEEPER,LIGHT,0,{ENTER},7020,0,3611
CRAT,123,SUIT{ENTER},WET,LAW,BUSINESS,0,FIRM{ENTER},9539,1,1429
CRAT,123,SOAP{ENTER},OPERA,HAND,DISH,0,WASH{ENTER},1051,1,1132
CRAT,123,,,,,,,,,
CRAT,123,,,,,,,,,
CRAT,123,,,,,,,,,
CRAT,123,,,,,,,,,
CRAT,123,,,,,,,,,
CRAT,123,,,,,,,,,
CRAT,124,,,,,,,,,
CRAT,124,,,,,,,,,
CRAT,124,,,,,,,,,
CRAT,124,,,,,,,,,
CRAT,124,,,,,,,,,
CRAT,124,STATION{ENTER},WAGON,BREAK,RADIO,0,,0,0,3859
CRAT,124,BRUSH{ENTER},SAGE,PAINT,HAIR,0,ER{ENTER},8498,2,3121
CRAT,124,CALL{ENTER},CAT,NUMBER,PHONE,1,CALL{ENTER},7030,3,3829
CRAT,124,GOLD{ENTER},FISH,MINE,RUSH,0,ING{ENTER},1662,3,5286
CRAT,124,CHEESE{ENTER},COTTAGE,BRICK,CAKE,1,CHEESE{ENTER},6143,3,2341
CRAT,124,STREET{ENTER},MAIN,SWEEPER,LIGHT,0,STREAM{ENTER},6245,1,2982
CRAT,124,RING{ENTER},MASTER,TOSS,FINGER,0,UP{ENTER},7519,2,3417
CRAT,124,PIT{ENTER},PEACH,ARM,TAR,0,FRUIT{ENTER},12792,2,3997
CRAT,124,SOAP{ENTER},OPERA,HAND,DISH,0,TOWEL{ENTER},7791,1,2429
CRAT,124,TREE{ENTER},PALM,SHOE,HOUSE,1,TREE{ENTER},6554,2,3532
CRAT,124,TURN{ENTER},PIKE,COAT,SIGNAL,0,HOOK{ENTER},11287,2,2958
CRAT,124,HOLE{ENTER},FOX,MAN,PEEP,0,WILD{ENTER},8180,2,2113
CRAT,124,SPACE{ENTER},CADET,CAPSULE,SHIP,0,ABOARD{ENTER},10474,2,2756
CRAT,124,CAMP{ENTER},BOOT,SUMMER,GROUND,1,CAMP{ENTER},14711,3,3594
CRAT,124,POWDER{ENTER},KEG,PUFF,ROOM,0,ER{ENTER},13871,2,2613
CRAT,124,SAW{ENTER},MILL,TOOTH,DUST,0,ACHE{ENTER},6089,2,2560
CRAT,124,PAPER{ENTER},FLY,CLIP,WALL,0,HORSE{ENTER},12796,2,2704
CRAT,124,COMMON{ENTER},SENSE,COURTESY,PLACE,1,COMMON{ENTER},10472,4,3010
CRAT,124,GIRL{ENTER},FLOWER,FRIEND,SCOUT,1,GIRL{ENTER},1662,4,2086
CRAT,124,BLOOD{ENTER},HOUND,PRESSURE,SHOT,0,DOG{ENTER},8307,3,4506
CRAT,124,MARK{ENTER},DOWN,QUESTION,CHECK,0,UP{ENTER},10456,2,2275
CRAT,124,WALK{ENTER},WAY,BOARD,SLEEP,0,A{ENTER},1866,2,3737
CRAT,124,RED{ENTER},CARPET,ALERT,INK,1,RED{ENTER},2194,3,5074
CRAT,124,SUIT{ENTER},WET,LAW,BUSINESS,0,{ENTER},17312,0,1137
CRAT,124,BOAT{ENTER},SHOW,LIFE,ROW,0,DAY{ENTER},13523,2,2841
CRAT,124,RACE{ENTER},HORSE,HUMAN,DRAG,1,RACE{ENTER},10507,3,2531
CRAT,124,WRITER{ENTER},TYPE,GHOST,SCREEN,0,PLAY{ENTER},6944,2,5363
CRAT,124,HEAD{ENTER},HAMMER,GEAR,HUNTER,0,SLEDGE{ENTER},14435,2,3537
CRAT,124,FIGURE{ENTER},EIGHT,SKATE,STICK,0,{ENTER},14631,0,2508
CRAT,124,MOON{ENTER},SHINE,BEAM,STRUCK,0,ER{ENTER},15199,2,1980
CRAT,124,,,,,,,,,
CRAT,124,,,,,,,,,
CRAT,124,,,,,,,,,
CRAT,124,,,,,,,,,
CRAT,124,,,,,,,,,
CRAT,124,,,,,,,,,
CRAT,125,,,,,,,,,
CRAT,125,,,,,,,,,
CRAT,125,,,,,,,,,
CRAT,125,,,,,,,,,
CRAT,125,,,,,,,,,
CRAT,125,MARK{ENTER},DOWN,QUESTION,CHECK,1,MARK{ENTER},2379,2,1555
CRAT,125,RING{ENTER},MASTER,TOSS,FINGER,1,RING{ENTER},2477,2,1393
CRAT,125,BLOOD{ENTER},HOUND,PRESSURE,SHOT,0,HEAD{ENTER},11139,1,1600
CRAT,125,SOAP{ENTER},OPERA,HAND,DISH,0,,0,0,1538
CRAT,125,POWDER{ENTER},KEG,PUFF,ROOM,0,,0,0,1295
CRAT,125,STATION{ENTER},WAGON,BREAK,RADIO,0,,0,0,1482
CRAT,125,WRITER{ENTER},TYPE,GHOST,SCREEN,1,WRITER{ENTER},4053,4,2869
CRAT,125,GIRL{ENTER},FLOWER,FRIEND,SCOUT,1,GIRL{ENTER},17151,2,1672
CRAT,125,RACE{ENTER},HORSE,HUMAN,DRAG,0,,0,0,1329
CRAT,125,RED{ENTER},CARPET,ALERT,INK,0,STAIN{ENTER},17564,2,2818
CRAT,125,COMMON{ENTER},SENSE,COURTESY,PLACE,1,COMMON{ENTER},2471,3,2651
CRAT,125,PIT{ENTER},PEACH,ARM,TAR,1,PIT{ENTER},3919,2,1573
CRAT,125,CALL{ENTER},CAT,NUMBER,PHONE,1,CALL{ENTER},6884,2,1144
CRAT,125,CHEESE{ENTER},COTTAGE,BRICK,CAKE,0,{ENTER},32,2,1678
CRAT,125,TREE{ENTER},PALM,SHOE,HOUSE,0,,0,0,1860
CRAT,125,SPACE{ENTER},CADET,CAPSULE,SHIP,0,ROCKET{ENTER},5091,2,1381
CRAT,125,GOLD{ENTER},FISH,MINE,RUSH,1,GOLD{ENTER},2293,3,2449
CRAT,125,SUIT{ENTER},WET,LAW,BUSINESS,0,SCHOOL{ENTER},21227,2,1859
CRAT,125,SAW{ENTER},MILL,TOOTH,DUST,1,SAW{ENTER},1167,3,1996
CRAT,125,BRUSH{ENTER},SAGE,PAINT,HAIR,0,,0,0,1971
CRAT,125,WALK{ENTER},WAY,BOARD,SLEEP,1,WALK{ENTER},4605,2,1413
CRAT,125,STREET{ENTER},MAIN,SWEEPER,LIGHT,0,,0,0,5478
CRAT,125,MOON{ENTER},SHINE,BEAM,STRUCK,0,SUN{ENTER},8649,2,1698
CRAT,125,CAMP{ENTER},BOOT,SUMMER,GROUND,1,CAMP{ENTER},3416,3,1603
CRAT,125,BOAT{ENTER},SHOW,LIFE,ROW,1,BOAT{ENTER},4803,3,1921
CRAT,125,TURN{ENTER},PIKE,COAT,SIGNAL,1,TURN{ENTER},2867,3,1670
CRAT,125,FIGURE{ENTER},EIGHT,SKATE,STICK,0,,0,0,1313
CRAT,125,PAPER{ENTER},FLY,CLIP,WALL,0,SRT{ENTER},21476,3,3153
CRAT,125,HEAD{ENTER},HAMMER,GEAR,HUNTER,0,,0,0,1412
CRAT,125,HOLE{ENTER},FOX,MAN,PEEP,1,HOLE{ENTER},17556,1,2331
CRAT,125,,,,,,,,,
CRAT,125,,,,,,,,,
CRAT,125,,,,,,,,,
CRAT,125,,,,,,,,,
CRAT,125,,,,,,,,,
CRAT,125,,,,,,,,,
CRAT,126,,,,,,,,,
CRAT,126,,,,,,,,,
CRAT,126,,,,,,,,,
CRAT,126,,,,,,,,,
CRAT,126,,,,,,,,,
CRAT,126,WALK{ENTER},WAY,BOARD,SLEEP,0,{ENTER},12921,0,2185
CRAT,126,GIRL{ENTER},FLOWER,FRIEND,SCOUT,0,BOY{ENTER},4955,2,1492
CRAT,126,PIT{ENTER},PEACH,ARM,TAR,0,,0,0,1811
CRAT,126,STATION{ENTER},WAGON,BREAK,RADIO,0,{ENTER},24806,0,1330
CRAT,126,MOON{ENTER},SHINE,BEAM,STRUCK,0,STAR{ENTER},2055,1,2701
CRAT,126,POWDER{ENTER},KEG,PUFF,ROOM,1,POWDER{ENTER},1601,4,2075
CRAT,126,TREE{ENTER},PALM,SHOE,HOUSE,0,{ENTER},24919,0,446
CRAT,126,BRUSH{ENTER},SAGE,PAINT,HAIR,0,{ENTER},667,0,621
CRAT,126,SUIT{ENTER},WET,LAW,BUSINESS,0,SOCIAL{ENTER},5160,1,2648
CRAT,126,STREET{ENTER},MAIN,SWEEPER,LIGHT,0,HOUSE{ENTER},10595,1,1512
CRAT,126,CALL{ENTER},CAT,NUMBER,PHONE,1,CALL{ENTER},1582,2,1929
CRAT,126,CHEESE{ENTER},COTTAGE,BRICK,CAKE,1,CHEESE{ENTER},7549,1,2118
CRAT,126,BLOOD{ENTER},HOUND,PRESSURE,SHOT,0,POINT{ENTER},10118,1,1055
CRAT,126,SOAP{ENTER},OPERA,HAND,DISH,0,{ENTER},557,0,660
CRAT,126,RACE{ENTER},HORSE,HUMAN,DRAG,1,RACE{ENTER},2308,4,2272
CRAT,126,RED{ENTER},CARPET,ALERT,INK,0,STAIN{ENTER},6527,1,1411
CRAT,126,RING{ENTER},MASTER,TOSS,FINGER,0,FOOD{ENTER},10918,1,1644
CRAT,126,MARK{ENTER},DOWN,QUESTION,CHECK,0,MATE{ENTER},13998,1,2351
CRAT,126,PAPER{ENTER},FLY,CLIP,WALL,0,HOLDER{ENTER},3920,1,1190
CRAT,126,COMMON{ENTER},SENSE,COURTESY,PLACE,1,COMMON{ENTER},1186,4,1438
CRAT,126,FIGURE{ENTER},EIGHT,SKATE,STICK,0,BALL{ENTER},8310,1,2733
CRAT,126,CAMP{ENTER},BOOT,SUMMER,GROUND,1,CAMP{ENTER},8298,4,1137
CRAT,126,SAW{ENTER},MILL,TOOTH,DUST,0,OLD{ENTER},6759,1,1297
CRAT,126,GOLD{ENTER},FISH,MINE,RUSH,0,{ENTER},9336,0,1091
CRAT,126,WRITER{ENTER},TYPE,GHOST,SCREEN,0,{ENTER},1330,0,232
CRAT,126,HOLE{ENTER},FOX,MAN,PEEP,0,{ENTER},717,0,413
CRAT,126,HEAD{ENTER},HAMMER,GEAR,HUNTER,0,{ENTER},8552,0,485
CRAT,126,BOAT{ENTER},SHOW,LIFE,ROW,0,TIME{ENTER},6029,1,1352
CRAT,126,SPACE{ENTER},CADET,CAPSULE,SHIP,0,ARMY{ENTER},1113,2,2232
CRAT,126,TURN{ENTER},PIKE,COAT,SIGNAL,0,{ENTER},11324,0,480
CRAT,126,,,,,,,,,
CRAT,126,,,,,,,,,
CRAT,126,,,,,,,,,
CRAT,126,,,,,,,,,
CRAT,126,,,,,,,,,
CRAT,126,,,,,,,,,
CRAT,127,,,,,,,,,
CRAT,127,,,,,,,,,
CRAT,127,,,,,,,,,
CRAT,127,,,,,,,,,
CRAT,127,,,,,,,,,
CRAT,127,FIGURE{ENTER},EIGHT,SKATE,STICK,0,BIG{ENTER},24223,1,3654
CRAT,127,GOLD{ENTER},FISH,MINE,RUSH,1,GOLD{ENTER},3419,1,2374
CRAT,127,STREET{ENTER},MAIN,SWEEPER,LIGHT,0,HOUSE,24183,0,3564
CRAT,127,MOON{ENTER},SHINE,BEAM,STRUCK,0,STAR{ENTER},1928,1,2356
CRAT,127,SPACE{ENTER},CADET,CAPSULE,SHIP,0,{ENTER},11981,0,1494
CRAT,127,COMMON{ENTER},SENSE,COURTESY,PLACE,1,COMMON{ENTER},3472,1,1577
CRAT,127,GIRL{ENTER},FLOWER,FRIEND,SCOUT,0,FRIENDLY{ENTER},3673,1,1466
CRAT,127,RING{ENTER},MASTER,TOSS,FINGER,0,M{CAPSLOCK}ain{ENTER},14852,1,2593
CRAT,127,WRITER{ENTER},TYPE,GHOST,SCREEN,0,,0,0,2236
CRAT,127,CAMP{ENTER},BOOT,SUMMER,GROUND,1,camp{ENTER},2469,1,1690
CRAT,127,BLOOD{ENTER},HOUND,PRESSURE,SHOT,0,,0,0,1765
CRAT,127,PIT{ENTER},PEACH,ARM,TAR,0,,0,0,2177
CRAT,127,SUIT{ENTER},WET,LAW,BUSINESS,0,{ENTER},22666,0,1172
CRAT,127,BRUSH{ENTER},SAGE,PAINT,HAIR,0,spray{ENTER},8171,3,7017
CRAT,127,POWDER{ENTER},KEG,PUFF,ROOM,0,{CAPSLOCK}GREEN{ENTER},16685,2,2234
CRAT,127,RED{ENTER},CARPET,ALERT,INK,0,{ENTER},20794,0,1157
CRAT,127,SOAP{ENTER},OPERA,HAND,DISH,0,WASH{ENTER},6012,2,4422
CRAT,127,RACE{ENTER},HORSE,HUMAN,DRAG,1,RACE{ENTER},2394,1,1762
CRAT,127,STATION{ENTER},WAGON,BREAK,RADIO,0,SHOW{ENTER},7992,2,3244
CRAT,127,BOAT{ENTER},SHOW,LIFE,ROW,0,{ENTER},21085,0,1067
CRAT,127,PAPER{ENTER},FLY,CLIP,WALL,0,SMALL{ENTER},7393,4,2976
CRAT,127,HOLE{ENTER},FOX,MAN,PEEP,0,{ENTER},9939,0,644
CRAT,127,TREE{ENTER},PALM,SHOE,HOUSE,0,SMALL{ENTER},3825,2,2714
CRAT,127,CHEESE{ENTER},COTTAGE,BRICK,CAKE,0,HOUSE{ENTER},5229,1,1674
CRAT,127,MARK{ENTER},DOWN,QUESTION,CHECK,0,STATEMENT{ENTER},22149,2,4725
CRAT,127,TURN{ENTER},PIKE,COAT,SIGNAL,0,RED{ENTER},8287,2,2504
CRAT,127,CALL{ENTER},CAT,NUMBER,PHONE,0,WRONG{ENTER},20621,3,3296
CRAT,127,WALK{ENTER},WAY,BOARD,SLEEP,0,LONG{ENTER},18254,2,1975
CRAT,127,SAW{ENTER},MILL,TOOTH,DUST,0,FAIRY{ENTER},3588,1,2217
CRAT,127,HEAD{ENTER},HAMMER,GEAR,HUNTER,0,TOUGH{ENTER},4436,1,1426
CRAT,127,,,,,,,,,
CRAT,127,,,,,,,,,
CRAT,127,,,,,,,,,
CRAT,127,,,,,,,,,
CRAT,127,,,,,,,,,
CRAT,127,,,,,,,,,
CRAT,128,,,,,,,,,
CRAT,128,,,,,,,,,
CRAT,128,,,,,,,,,
CRAT,128,,,,,,,,,
CRAT,128,,,,,,,,,
CRAT,128,TURN{ENTER},PIKE,COAT,SIGNAL,0,,24541,0,1425
CRAT,128,COMMON{ENTER},SENSE,COURTESY,PLACE,1,COMMON{ENTER},3391,3,5035
CRAT,128,PAPER{ENTER},FLY,CLIP,WALL,0,FIRE{ENTER},17561,3,3759
CRAT,128,MARK{ENTER},DOWN,QUESTION,CHECK,0,UNDER{ENTER},12579,3,3937
CRAT,128,SAW{ENTER},MILL,TOOTH,DUST,0,ACHE{ENTER},11813,3,2276
CRAT,128,STATION{ENTER},WAGON,BREAK,RADIO,1,STATION{ENTER},9064,3,2350
CRAT,128,SOAP{ENTER},OPERA,HAND,DISH,0,WASH{ENTER},4042,3,2378
CRAT,128,RING{ENTER},MASTER,TOSS,FINGER,0,FOAM{ENTER},16982,4,4709
CRAT,128,BLOOD{ENTER},HOUND,PRESSURE,SHOT,0,LUCKY{ENTER},8880,4,2206
CRAT,128,BOAT{ENTER},SHOW,LIFE,ROW,0,TIME{ENTER},16487,4,1899
CRAT,128,STREET{ENTER},MAIN,SWEEPER,LIGHT,0,BULB{ENTER},4413,4,3293
CRAT,128,CAMP{ENTER},BOOT,SUMMER,GROUND,0,TIME{ENTER},1634,4,1339
CRAT,128,PIT{ENTER},PEACH,ARM,TAR,1,PIT{ENTER},6893,4,2114
CRAT,128,RACE{ENTER},HORSE,HUMAN,DRAG,1,RACE{ENTER},5174,4,3269
CRAT,128,BRUSH{ENTER},SAGE,PAINT,HAIR,0,CUT{ENTER},4931,4,1693
CRAT,128,GIRL{ENTER},FLOWER,FRIEND,SCOUT,1,GIRL{ENTER},3060,4,3054
CRAT,128,POWDER{ENTER},KEG,PUFF,ROOM,0,STAND{ENTER},4950,4,1999
CRAT,128,HOLE{ENTER},FOX,MAN,PEEP,1,HOLE{ENTER},3276,4,1677
CRAT,128,CHEESE{ENTER},COTTAGE,BRICK,CAKE,0,HOUSE{ENTER},5080,3,3115
CRAT,128,HEAD{ENTER},HAMMER,GEAR,HUNTER,0,SHOT{ENTER},9238,4,1861
CRAT,128,SUIT{ENTER},WET,LAW,BUSINESS,0,SCHOOL{ENTER},3063,4,1409
CRAT,128,MOON{ENTER},SHINE,BEAM,STRUCK,0,STAR{ENTER},1235,4,1421
CRAT,128,WALK{ENTER},WAY,BOARD,SLEEP,1,WALK{ENTER},1414,4,1273
CRAT,128,FIGURE{ENTER},EIGHT,SKATE,STICK,1,FIGURE{ENTER},3419,4,1287
CRAT,128,CALL{ENTER},CAT,NUMBER,PHONE,1,CALL{ENTER},1500,4,1338
CRAT,128,GOLD{ENTER},FISH,MINE,RUSH,1,GOLD{ENTER},1964,4,2023
CRAT,128,SPACE{ENTER},CADET,CAPSULE,SHIP,0,{ENTER},13238,0,1464
CRAT,128,RED{ENTER},CARPET,ALERT,INK,0,JET{ENTER},1720,4,1421
CRAT,128,TREE{ENTER},PALM,SHOE,HOUSE,0,LACE{ENTER},8201,4,1269
CRAT,128,WRITER{ENTER},TYPE,GHOST,SCREEN,0,BUSTER{ENTER},6098,4,3930
CRAT,128,,,,,,,,,
CRAT,128,,,,,,,,,
CRAT,128,,,,,,,,,
CRAT,128,,,,,,,,,
CRAT,128,,,,,,,,,
CRAT,128,,,,,,,,,
CRAT,129,,,,,,,,,
CRAT,129,,,,,,,,,
CRAT,129,,,,,,,,,
CRAT,129,,,,,,,,,
CRAT,129,,,,,,,,,
CRAT,129,CAMP{ENTER},BOOT,SUMMER,GROUND,1,CAMP{ENTER},3456,3,3418
CRAT,129,MARK{ENTER},DOWN,QUESTION,CHECK,1,MARK{ENTER},2957,2,1900
CRAT,129,RACE{ENTER},HORSE,HUMAN,DRAG,1,RACE{ENTER},3888,3,1895
CRAT,129,COMMON{ENTER},SENSE,COURTESY,PLACE,0,SAFE{ENTER},12745,1,3281
CRAT,129,BOAT{ENTER},SHOW,LIFE,ROW,1,BOAT{ENTER},2042,4,2129
CRAT,129,SAW{ENTER},MILL,TOOTH,DUST,0,BRUSH{ENTER},16457,1,1391
CRAT,129,CALL{ENTER},CAT,NUMBER,PHONE,0,HOUSE{ENTER},18858,1,2185
CRAT,129,RING{ENTER},MASTER,TOSS,FINGER,1,RING{ENTER},6210,3,2421
CRAT,129,STATION{ENTER},WAGON,BREAK,RADIO,1,STATION{ENTER},23241,2,3978
CRAT,129,MOON{ENTER},SHINE,BEAM,STRUCK,0,STAR{ENTER},2112,3,2852
CRAT,129,HOLE{ENTER},FOX,MAN,PEEP,1,HOLE{ENTER},2311,4,1378
CRAT,129,POWDER{ENTER},KEG,PUFF,ROOM,0,,0,0,2309
CRAT,129,BLOOD{ENTER},HOUND,PRESSURE,SHOT,0,,0,0,1978
CRAT,129,TREE{ENTER},PALM,SHOE,HOUSE,0,,0,0,2019
CRAT,129,WALK{ENTER},WAY,BOARD,SLEEP,1,WALK{ENTER},10579,4,3081
CRAT,129,TURN{ENTER},PIKE,COAT,SIGNAL,1,TURN{ENTER},1803,4,1324
CRAT,129,BRUSH{ENTER},SAGE,PAINT,HAIR,0,,0,0,3683
CRAT,129,STREET{ENTER},MAIN,SWEEPER,LIGHT,1,STREET{ENTER},2450,4,1463
CRAT,129,PAPER{ENTER},FLY,CLIP,WALL,0,,0,0,1665
CRAT,129,GIRL{ENTER},FLOWER,FRIEND,SCOUT,0,,0,0,1431
CRAT,129,CHEESE{ENTER},COTTAGE,BRICK,CAKE,0,,0,0,2041
CRAT,129,WRITER{ENTER},TYPE,GHOST,SCREEN,1,WRITER{ENTER},2588,3,1804
CRAT,129,SPACE{ENTER},CADET,CAPSULE,SHIP,1,SPACE{ENTER},2646,4,1091
CRAT,129,SOAP{ENTER},OPERA,HAND,DISH,1,SOAP{ENTER},5451,4,1101
CRAT,129,SUIT{ENTER},WET,LAW,BUSINESS,0,,0,0,1814
CRAT,129,FIGURE{ENTER},EIGHT,SKATE,STICK,0,,0,0,2405
CRAT,129,RED{ENTER},CARPET,ALERT,INK,1,RED{ENTER},3542,1,2524
CRAT,129,GOLD{ENTER},FISH,MINE,RUSH,0,,0,0,1671
CRAT,129,HEAD{ENTER},HAMMER,GEAR,HUNTER,0,,0,0,2045
CRAT,129,PIT{ENTER},PEACH,ARM,TAR,1,PIT{ENTER},1451,3,2092
CRAT,129,,,,,,,,,
CRAT,129,,,,,,,,,
CRAT,129,,,,,,,,,
CRAT,129,,,,,,,,,
CRAT,129,,,,,,,,,
CRAT,129,,,,,,,,,
CRAT,130,,,,,,,,,
CRAT,130,,,,,,,,,
CRAT,130,,,,,,,,,
CRAT,130,,,,,,,,,
CRAT,130,,,,,,,,,
CRAT,130,TURN{ENTER},PIKE,COAT,SIGNAL,0,LONG{ENTER},16192,2,5555
CRAT,130,HOLE{ENTER},FOX,MAN,PEEP,1,HOLE{ENTER},5783,1,2380
CRAT,130,PAPER{ENTER},FLY,CLIP,WALL,0,{ENTER},15088,0,2482
CRAT,130,RING{ENTER},MASTER,TOSS,FINGER,1,RING{ENTER},2363,4,4772
CRAT,130,BRUSH{ENTER},SAGE,PAINT,HAIR,0,BROWN{ENTER},9237,3,3573
CRAT,130,SOAP{ENTER},OPERA,HAND,DISH,0,STAND{ENTER},3212,1,1856
CRAT,130,HEAD{ENTER},HAMMER,GEAR,HUNTER,0,{ENTER},1992,0,961
CRAT,130,GOLD{ENTER},FISH,MINE,RUSH,0,{ENTER},4847,0,795
CRAT,130,CALL{ENTER},CAT,NUMBER,PHONE,1,CALL{ENTER},4207,3,4440
CRAT,130,STREET{ENTER},MAIN,SWEEPER,LIGHT,0,HALL{ENTER},12931,2,2018
CRAT,130,BLOOD{ENTER},HOUND,PRESSURE,SHOT,0,{ENTER},3669,0,1270
CRAT,130,WRITER{ENTER},TYPE,GHOST,SCREEN,0,{ENTER},8048,0,515
CRAT,130,SUIT{ENTER},WET,LAW,BUSINESS,0,{ENTER},7913,0,258
CRAT,130,FIGURE{ENTER},EIGHT,SKATE,STICK,0,{ENTER},1297,0,313
CRAT,130,SAW{ENTER},MILL,TOOTH,DUST,0,FAIRY{ENTER},9601,4,2304
CRAT,130,MARK{ENTER},DOWN,QUESTION,CHECK,0,MATE{ENTER},11916,0,1319
CRAT,130,CAMP{ENTER},BOOT,SUMMER,GROUND,0,{ENTER},24775,0,854
CRAT,130,GIRL{ENTER},FLOWER,FRIEND,SCOUT,0,BOY{ENTER},5681,4,1306
CRAT,130,MOON{ENTER},SHINE,BEAM,STRUCK,1,MOON{ENTER},15795,0,1959
CRAT,130,CHEESE{ENTER},COTTAGE,BRICK,CAKE,0,{ENTER},11297,0,471
CRAT,130,TREE{ENTER},PALM,SHOE,HOUSE,1,TREE{ENTER},17279,2,2961
CRAT,130,RACE{ENTER},HORSE,HUMAN,DRAG,1,RACE{ENTER},2227,3,1506
CRAT,130,COMMON{ENTER},SENSE,COURTESY,PLACE,0,{ENTER},1698,0,408
CRAT,130,PIT{ENTER},PEACH,ARM,TAR,1,PIT{RIGHTBRACKET}{RIGHTBRACKET}{ENTER},3519,3,1366
CRAT,130,BOAT{ENTER},SHOW,LIFE,ROW,0,{SHIFT}{ENTER},3007,0,780
CRAT,130,STATION{ENTER},WAGON,BREAK,RADIO,0,{ENTER},2746,0,755
CRAT,130,WALK{ENTER},WAY,BOARD,SLEEP,0,{ENTER},297,0,715
CRAT,130,RED{ENTER},CARPET,ALERT,INK,0,PAD{ENTER},6163,3,4120
CRAT,130,SPACE{ENTER},CADET,CAPSULE,SHIP,0,SAIL{ENTER},3429,2,1135
CRAT,130,POWDER{ENTER},KEG,PUFF,ROOM,0,POWER{ENTER},23952,1,3267
CRAT,130,,,,,,,,,
CRAT,130,,,,,,,,,
CRAT,130,,,,,,,,,
CRAT,130,,,,,,,,,
CRAT,130,,,,,,,,,
CRAT,130,,,,,,,,,
CRAT,131,,,,,,,,,
CRAT,131,,,,,,,,,
CRAT,131,,,,,,,,,
CRAT,131,,,,,,,,,
CRAT,131,,,,,,,,,
CRAT,131,SAW{ENTER},MILL,TOOTH,DUST,0,BRUSH{ENTER},7657,2,2908
CRAT,131,HOLE{ENTER},FOX,MAN,PEEP,1,HOLE{ENTER},3226,4,1709
CRAT,131,CAMP{ENTER},BOOT,SUMMER,GROUND,1,CAMP{ENTER},3659,4,2555
CRAT,131,POWDER{ENTER},KEG,PUFF,ROOM,1,POWDER{ENTER},3057,3,2940
CRAT,131,TURN{ENTER},PIKE,COAT,SIGNAL,0,TAIL{ENTER},5036,1,3393
CRAT,131,RED{ENTER},CARPET,ALERT,INK,0,STAIN{ENTER},9668,1,3056
CRAT,131,BRUSH{ENTER},SAGE,PAINT,HAIR,0,SPRAY{ENTER},7607,2,1932
CRAT,131,GOLD{ENTER},FISH,MINE,RUSH,0,,0,0,2252
CRAT,131,SPACE{ENTER},CADET,CAPSULE,SHIP,0,NAVY{ENTER},4858,1,1607
CRAT,131,PIT{ENTER},PEACH,ARM,TAR,0,HAIR{ENTER},7156,1,2061
CRAT,131,MOON{ENTER},SHINE,BEAM,STRUCK,0,SUN{ENTER},12086,2,2106
CRAT,131,WRITER{ENTER},TYPE,GHOST,SCREEN,0,,0,0,1386
CRAT,131,GIRL{ENTER},FLOWER,FRIEND,SCOUT,1,GIRL{ENTER},4793,3,1737
CRAT,131,PAPER{ENTER},FLY,CLIP,WALL,0,,0,0,1621
CRAT,131,CALL{ENTER},CAT,NUMBER,PHONE,1,CALL{ENTER},15123,1,1331
CRAT,131,RACE{ENTER},HORSE,HUMAN,DRAG,1,RACE{ENTER},2255,3,1980
CRAT,131,BLOOD{ENTER},HOUND,PRESSURE,SHOT,0,HOT{ENTER},6178,2,2838
CRAT,131,HEAD{ENTER},HAMMER,GEAR,HUNTER,0,,0,0,2461
CRAT,131,BOAT{ENTER},SHOW,LIFE,ROW,0,,0,0,1438
CRAT,131,SUIT{ENTER},WET,LAW,BUSINESS,0,,0,0,1828
CRAT,131,WALK{ENTER},WAY,BOARD,SLEEP,0,HEAD{ENTER},14203,2,6403
CRAT,131,TREE{ENTER},PALM,SHOE,HOUSE,0,,16681,0,1405
CRAT,131,STATION{ENTER},WAGON,BREAK,RADIO,0,,0,0,1359
CRAT,131,CHEESE{ENTER},COTTAGE,BRICK,CAKE,0,,0,0,2025
CRAT,131,FIGURE{ENTER},EIGHT,SKATE,STICK,1,FIGURE{ENTER},4286,4,2548
CRAT,131,MARK{ENTER},DOWN,QUESTION,CHECK,0,,0,0,1414
CRAT,131,COMMON{ENTER},SENSE,COURTESY,PLACE,0,GOOD{ENTER},23766,1,1695
CRAT,131,STREET{ENTER},MAIN,SWEEPER,LIGHT,1,STREET{ENTER},9025,3,1353
CRAT,131,RING{ENTER},MASTER,TOSS,FINGER,1,RING{ENTER},2205,4,1341
CRAT,131,SOAP{ENTER},OPERA,HAND,DISH,0,,0,0,1426
CRAT,131,,,,,,,,,
CRAT,131,,,,,,,,,
CRAT,131,,,,,,,,,
CRAT,131,,,,,,,,,
CRAT,131,,,,,,,,,
CRAT,131,,,,,,,,,
CRAT,132,,,,,,,,,
CRAT,132,,,,,,,,,
CRAT,132,,,,,,,,,
CRAT,132,,,,,,,,,
CRAT,132,,,,,,,,,
CRAT,132,MOON{ENTER},SHINE,BEAM,STRUCK,0,SUN{ENTER},10696,2,2152
CRAT,132,SUIT{ENTER},WET,LAW,BUSINESS,0,{ENTER},19682,0,2492
CRAT,132,GOLD{ENTER},FISH,MINE,RUSH,1,GOLD{ENTER},3629,4,959
CRAT,132,BLOOD{ENTER},HOUND,PRESSURE,SHOT,0,{ENTER},24767,0,1005
CRAT,132,CHEESE{ENTER},COTTAGE,BRICK,CAKE,1,CHEESE{ENTER},13885,2,1971
CRAT,132,HEAD{ENTER},HAMMER,GEAR,HUNTER,0,,0,0,2296
CRAT,132,POWDER{ENTER},KEG,PUFF,ROOM,1,POWDER{ENTER},19211,2,2042
CRAT,132,SAW{ENTER},MILL,TOOTH,DUST,1,SAW{ENTER},15483,2,1675
CRAT,132,RED{ENTER},CARPET,ALERT,INK,0,{ENTER},17675,0,1100
CRAT,132,SPACE{ENTER},CADET,CAPSULE,SHIP,1,SPACE{ENTER},1849,4,1224
CRAT,132,BRUSH{ENTER},SAGE,PAINT,HAIR,1,BRUSH{ENTER},8004,2,2009
CRAT,132,RING{ENTER},MASTER,TOSS,FINGER,0,{ENTER},21747,0,1476
CRAT,132,BOAT{ENTER},SHOW,LIFE,ROW,1,BOAT{ENTER},2890,4,1628
CRAT,132,MARK{ENTER},DOWN,QUESTION,CHECK,0,{ENTER},20253,0,943
CRAT,132,TREE{ENTER},PALM,SHOE,HOUSE,0,{ENTER},13913,0,989
CRAT,132,STATION{ENTER},WAGON,BREAK,RADIO,0,{ENTER},12353,0,649
CRAT,132,CAMP{ENTER},BOOT,SUMMER,GROUND,0,HOT{ENTER},2617,2,8887
CRAT,132,GIRL{ENTER},FLOWER,FRIEND,SCOUT,0,BOY{ENTER},6539,1,1615
CRAT,132,COMMON{ENTER},SENSE,COURTESY,PLACE,1,COMMON{ENTER},2182,4,1943
CRAT,132,PAPER{ENTER},FLY,CLIP,WALL,0,DRY{ENTER},17118,2,3895
CRAT,132,FIGURE{ENTER},EIGHT,SKATE,STICK,0,{ENTER},20802,0,859
CRAT,132,PIT{ENTER},PEACH,ARM,TAR,0,{ENTER},18101,0,708
CRAT,132,WALK{ENTER},WAY,BOARD,SLEEP,0,A{ENTER},18587,1,1109
CRAT,132,SOAP{ENTER},OPERA,HAND,DISH,1,{SHIFT}SOAP{ENTER},8412,1,3726
CRAT,132,HOLE{ENTER},FOX,MAN,PEEP,0,SHOW{ENTER},23046,2,1998
CRAT,132,WRITER{ENTER},TYPE,GHOST,SCREEN,1,WRITER{ENTER},2075,2,1168
CRAT,132,STREET{ENTER},MAIN,SWEEPER,LIGHT,1,STREET{ENTER},2808,1,1597
CRAT,132,TURN{ENTER},PIKE,COAT,SIGNAL,0,{ENTER},20609,0,947
CRAT,132,CALL{ENTER},CAT,NUMBER,PHONE,0,{ENTER},20924,0,688
CRAT,132,RACE{ENTER},HORSE,HUMAN,DRAG,1,RACE{ENTER},1969,3,1211
CRAT,132,,,,,,,,,
CRAT,132,,,,,,,,,
CRAT,132,,,,,,,,,
CRAT,132,,,,,,,,,
CRAT,132,,,,,,,,,
CRAT,132,,,,,,,,,
CRAT,133,,,,,,,,,
CRAT,133,,,,,,,,,
CRAT,133,,,,,,,,,
CRAT,133,,,,,,,,,
CRAT,133,,,,,,,,,
CRAT,133,CHEESE{ENTER},COTTAGE,BRICK,CAKE,0,CUPCAKE{ENTER},3446,3,3392
CRAT,133,TREE{ENTER},PALM,SHOE,HOUSE,1,TREE{ENTER},16924,1,6861
CRAT,133,MARK{ENTER},DOWN,QUESTION,CHECK,0,WARD{ENTER},5770,1,4479
CRAT,133,TURN{ENTER},PIKE,COAT,SIGNAL,0,STOCK{ENTER},21174,0,5824
CRAT,133,COMMON{ENTER},SENSE,COURTESY,PLACE,0,TASTE{ENTER},4288,2,6597
CRAT,133,RED{ENTER},CARPET,ALERT,INK,1,RED{ENTER},2286,3,11114
CRAT,133,FIGURE{ENTER},EIGHT,SKATE,STICK,1,FIGURE{ENTER},4625,2,2744
CRAT,133,GOLD{ENTER},FISH,MINE,RUSH,0,CATCH{ENTER},12606,1,7819
CRAT,133,GIRL{ENTER},FLOWER,FRIEND,SCOUT,0,SHIP{ENTER},24103,1,1586
CRAT,133,STREET{ENTER},MAIN,SWEEPER,LIGHT,0,HEAD{ENTER},11634,2,3577
CRAT,133,BOAT{ENTER},SHOW,LIFE,ROW,0,CYCLE{ENTER},2489,2,3724
CRAT,133,STATION{ENTER},WAGON,BREAK,RADIO,1,STATION{ENTER},6436,2,6652
CRAT,133,SPACE{ENTER},CADET,CAPSULE,SHIP,0,WRECK{ENTER},3092,2,12429
CRAT,133,SOAP{ENTER},OPERA,HAND,DISH,0,WASHER{ENTER},2420,1,18729
CRAT,133,SAW{ENTER},MILL,TOOTH,DUST,0,,0,0,12979
CRAT,133,RACE{ENTER},HORSE,HUMAN,DRAG,1,RACE{ENTER},6468,1,3915
CRAT,133,BRUSH{ENTER},SAGE,PAINT,HAIR,0,DYE{ENTER},3419,1,2407
CRAT,133,POWDER{ENTER},KEG,PUFF,ROOM,0,,14887,0,1883
CRAT,133,CAMP{ENTER},BOOT,SUMMER,GROUND,0,BACK,24778,0,2462
CRAT,133,WRITER{ENTER},TYPE,GHOST,SCREEN,0,WRITE{ENTER},6820,1,1676
CRAT,133,BLOOD{ENTER},HOUND,PRESSURE,SHOT,0,HOT{ENTER},2517,1,3638
CRAT,133,HOLE{ENTER},FOX,MAN,PEEP,0,SLY{ENTER},15815,1,2489
CRAT,133,MOON{ENTER},SHINE,BEAM,STRUCK,0,STAR{ENTER},5179,1,4282
CRAT,133,PAPER{ENTER},FLY,CLIP,WALL,0,WALL{ENTER},11030,1,2760
CRAT,133,WALK{ENTER},WAY,BOARD,SLEEP,0,WARD{ENTER},6258,1,3138
CRAT,133,HEAD{ENTER},HAMMER,GEAR,HUNTER,0,CAMP{ENTER},10446,1,1417
CRAT,133,SUIT{ENTER},WET,LAW,BUSINESS,0,MANAGE{ENTER},16730,1,2932
CRAT,133,PIT{ENTER},PEACH,ARM,TAR,0,TREE{ENTER},3686,1,1766
CRAT,133,RING{ENTER},MASTER,TOSS,FINGER,1,RING{ENTER},3022,1,1882
CRAT,133,CALL{ENTER},CAT,NUMBER,PHONE,1,CALL{ENTER},2718,2,2552
CRAT,133,,,,,,,,,
CRAT,133,,,,,,,,,
CRAT,133,,,,,,,,,
CRAT,133,,,,,,,,,
CRAT,133,,,,,,,,,
CRAT,133,,,,,,,,,
CRAT,135,,,,,,,,,
CRAT,135,,,,,,,,,
CRAT,135,,,,,,,,,
CRAT,135,,,,,,,,,
CRAT,135,,,,,,,,,
CRAT,135,WRITER{ENTER},TYPE,GHOST,SCREEN,0,GHOST{SPACE}TYPE{SPACE}SCREEN{ENTER},12746,2,2048
CRAT,135,CHEESE{ENTER},COTTAGE,BRICK,CAKE,0,BRICK{SPACE}COTTAGE{SPACE}CAKE{ENTER},13275,0,21658
CRAT,135,SOAP{ENTER},OPERA,HAND,DISH,0,S,23052,0,2272
CRAT,135,MARK{ENTER},DOWN,QUESTION,CHECK,0,,14949,0,9593
CRAT,135,HEAD{ENTER},HAMMER,GEAR,HUNTER,0,{CAPSLOCK}{CAPSLOCK}HUNTING{SPACE}GEAR{ENTER},12724,2,3532
CRAT,135,RACE{ENTER},HORSE,HUMAN,DRAG,0,,0,0,7347
CRAT,135,PAPER{ENTER},FLY,CLIP,WALL,0,FLYWALL{ENTER},17428,2,3488
CRAT,135,TREE{ENTER},PALM,SHOE,HOUSE,0,PALMHOUSE{ENTER},4139,2,2375
CRAT,135,SAW{ENTER},MILL,TOOTH,DUST,0,WINDMILL{ENTER},18655,3,6070
CRAT,135,CAMP{ENTER},BOOT,SUMMER,GROUND,1,CAM{LEFTBRACKET}{LEFTBRACE}{LEFTBRACKET}{LEFTBRACE}P{ENTER},21888,3,5482
CRAT,135,FIGURE{ENTER},EIGHT,SKATE,STICK,0,HOCKEY{ENTER},15512,4,2376
CRAT,135,SPACE{ENTER},CADET,CAPSULE,SHIP,0,NAVY{ENTER},2750,3,1911
CRAT,135,BOAT{ENTER},SHOW,LIFE,ROW,0,ROCK{ENTER},4942,3,2248
CRAT,135,POWDER{ENTER},KEG,PUFF,ROOM,0,SHOW{ENTER},22633,2,3139
CRAT,135,HOLE{ENTER},FOX,MAN,PEEP,0,NEWS{ENTER},7049,3,1751
CRAT,135,COMMON{ENTER},SENSE,COURTESY,PLACE,0,CHURCH{ENTER},19716,3,1997
CRAT,135,RED{ENTER},CARPET,ALERT,INK,0,,0,0,1765
CRAT,135,GOLD{ENTER},FISH,MINE,RUSH,1,GOLD{ENTER},21703,2,6730
CRAT,135,SUIT{ENTER},WET,LAW,BUSINESS,0,LAWYER{ENTER},6164,3,1623
CRAT,135,MOON{ENTER},SHINE,BEAM,STRUCK,0,TRUCK{ENTER},21218,2,1818
CRAT,135,RING{ENTER},MASTER,TOSS,FINGER,0,THRO,24766,0,1906
CRAT,135,TURN{ENTER},PIKE,COAT,SIGNAL,0,WEDDING{ENTER},23722,2,2085
CRAT,135,BRUSH{ENTER},SAGE,PAINT,HAIR,0,BARBER{ENTER},13844,2,1787
CRAT,135,STREET{ENTER},MAIN,SWEEPER,LIGHT,0,,21067,0,1951
CRAT,135,WALK{ENTER},WAY,BOARD,SLEEP,0,NAP{ENTER},22310,2,1934
CRAT,135,PIT{ENTER},PEACH,ARM,TAR,0,SF{ENTER},1579,2,1526
CRAT,135,GIRL{ENTER},FLOWER,FRIEND,SCOUT,0,,0,0,1647
CRAT,135,CALL{ENTER},CAT,NUMBER,PHONE,0,LINE{ENTER},11444,2,2819
CRAT,135,BLOOD{ENTER},HOUND,PRESSURE,SHOT,0,BULLS,24753,0,1685
CRAT,135,STATION{ENTER},WAGON,BREAK,RADIO,0,CAR{ENTER},9017,2,2849
CRAT,135,,,,,,,,,
CRAT,135,,,,,,,,,
CRAT,135,,,,,,,,,
CRAT,135,,,,,,,,,
CRAT,135,,,,,,,,,
CRAT,135,,,,,,,,,
CRAT,136,,,,,,,,,
CRAT,136,,,,,,,,,
CRAT,136,,,,,,,,,
CRAT,136,,,,,,,,,
CRAT,136,,,,,,,,,
CRAT,136,HEAD{ENTER},HAMMER,GEAR,HUNTER,0,TIME{ENTER},16461,1,3475
CRAT,136,CALL{ENTER},CAT,NUMBER,PHONE,0,,0,0,2805
CRAT,136,BRUSH{ENTER},SAGE,PAINT,HAIR,0,DUE,17850,0,1902
CRAT,136,PIT{ENTER},PEACH,ARM,TAR,0,,0,0,5010
CRAT,136,RED{ENTER},CARPET,ALERT,INK,0,,20299,0,1679
CRAT,136,POWDER{ENTER},KEG,PUFF,ROOM,0,,0,0,3592
CRAT,136,BOAT{ENTER},SHOW,LIFE,ROW,0,TIME{ENTER},19998,1,3898
CRAT,136,WRITER{ENTER},TYPE,GHOST,SCREEN,0,,0,0,2105
CRAT,136,GIRL{ENTER},FLOWER,FRIEND,SCOUT,0,,0,0,8346
CRAT,136,SPACE{ENTER},CADET,CAPSULE,SHIP,0,TIME{ENTER},1739,1,2383
CRAT,136,MOON{ENTER},SHINE,BEAM,STRUCK,0,STAR{ENTER},13871,4,3109
CRAT,136,SAW{ENTER},MILL,TOOTH,DUST,1,SAW{ENTER},6849,1,4552
CRAT,136,SOAP{ENTER},OPERA,HAND,DISH,0,,0,0,1861
CRAT,136,TREE{ENTER},PALM,SHOE,HOUSE,1,TREE{ENTER},13141,1,2395
CRAT,136,CHEESE{ENTER},COTTAGE,BRICK,CAKE,1,CHEESE{ENTER},6093,1,3380
CRAT,136,RING{ENTER},MASTER,TOSS,FINGER,0,,0,0,1817
CRAT,136,HOLE{ENTER},FOX,MAN,PEEP,0,,0,0,1915
CRAT,136,STATION{ENTER},WAGON,BREAK,RADIO,0,TRACK{ENTER},16326,3,3842
CRAT,136,GOLD{ENTER},FISH,MINE,RUSH,0,SCALE{ENTER},24639,1,2626
CRAT,136,SUIT{ENTER},WET,LAW,BUSINESS,0,,0,0,1452
CRAT,136,CAMP{ENTER},BOOT,SUMMER,GROUND,0,,0,0,1691
CRAT,136,BLOOD{ENTER},HOUND,PRESSURE,SHOT,0,,0,0,1813
CRAT,136,TURN{ENTER},PIKE,COAT,SIGNAL,0,LOW{ENTER},7885,1,1958
CRAT,136,FIGURE{ENTER},EIGHT,SKATE,STICK,0,PARK{ENTER},8935,1,1522
CRAT,136,COMMON{ENTER},SENSE,COURTESY,PLACE,0,{ENTER},994,0,1830
CRAT,136,WALK{ENTER},WAY,BOARD,SLEEP,0,{ENTER},13280,0,1007
CRAT,136,PAPER{ENTER},FLY,CLIP,WALL,0,ART{ENTER},5669,1,1407
CRAT,136,MARK{ENTER},DOWN,QUESTION,CHECK,0,{ENTER},9045,0,1148
CRAT,136,STREET{ENTER},MAIN,SWEEPER,LIGHT,0,{ENTER},4689,0,1125
CRAT,136,RACE{ENTER},HORSE,HUMAN,DRAG,0,{ENTER},21147,0,1319
CRAT,136,,,,,,,,,
CRAT,136,,,,,,,,,
CRAT,136,,,,,,,,,
CRAT,136,,,,,,,,,
CRAT,136,,,,,,,,,
CRAT,136,,,,,,,,,
CRAT,137,,,,,,,,,
CRAT,137,,,,,,,,,
CRAT,137,,,,,,,,,
CRAT,137,,,,,,,,,
CRAT,137,,,,,,,,,
CRAT,137,SAW{ENTER},MILL,TOOTH,DUST,0,{SHIFT}{SHIFT}oLD{ENTER},8277,2,3070
CRAT,137,STREET{ENTER},MAIN,SWEEPER,LIGHT,0,{ENTER},669,0,1343
CRAT,137,BLOOD{ENTER},HOUND,PRESSURE,SHOT,0,{SHIFT}hOT{ENTER},3339,2,7066
CRAT,137,CAMP{ENTER},BOOT,SUMMER,GROUND,0,{ENTER},1349,0,954
CRAT,137,FIGURE{ENTER},EIGHT,SKATE,STICK,0,{ENTER},1270,0,2846
CRAT,137,SOAP{ENTER},OPERA,HAND,DISH,0,{SHIFT}WASH{ENTER},8311,3,3998
CRAT,137,TREE{ENTER},PALM,SHOE,HOUSE,0,FRONT{ENTER},7013,1,6133
CRAT,137,CHEESE{ENTER},COTTAGE,BRICK,CAKE,0,{SHIFT}{SHIFT}BIG{ENTER},13763,1,1182
CRAT,137,COMMON{ENTER},SENSE,COURTESY,PLACE,0,{SHIFT}KIND{ENTER},7444,2,2273
CRAT,137,RACE{ENTER},HORSE,HUMAN,DRAG,0,OLD{ENTER},5567,1,3356
CRAT,137,HOLE{ENTER},FOX,MAN,PEEP,0,ALIVE{ENTER},1833,1,3097
CRAT,137,PIT{ENTER},PEACH,ARM,TAR,0,{ENTER},1449,0,1033
CRAT,137,GIRL{ENTER},FLOWER,FRIEND,SCOUT,0,{ENTER},1667,0,2730
CRAT,137,BOAT{ENTER},SHOW,LIFE,ROW,0,OLD{ENTER},1835,1,3451
CRAT,137,POWDER{ENTER},KEG,PUFF,ROOM,0,{ENTER},1338,0,1231
CRAT,137,GOLD{ENTER},FISH,MINE,RUSH,1,GOLD{ENTER},3290,4,2346
CRAT,137,CALL{ENTER},CAT,NUMBER,PHONE,0,STRAY{ENTER},10118,1,1695
CRAT,137,TURN{ENTER},PIKE,COAT,SIGNAL,0,{ENTER},527,0,1512
CRAT,137,RING{ENTER},MASTER,TOSS,FINGER,0,{ENTER},640,0,676
CRAT,137,MOON{ENTER},SHINE,BEAM,STRUCK,0,SUN{ENTER},2082,2,2871
CRAT,137,PAPER{ENTER},FLY,CLIP,WALL,0,{ENTER},2159,0,929
CRAT,137,BRUSH{ENTER},SAGE,PAINT,HAIR,0,SPRAY{ENTER},8267,3,2565
CRAT,137,MARK{ENTER},DOWN,QUESTION,CHECK,0,{SHIFT}{SHIFT}UP{ENTER},13717,1,2210
CRAT,137,HEAD{ENTER},HAMMER,GEAR,HUNTER,0,{SHIFT}WAR{ENTER},11649,1,1992
CRAT,137,WRITER{ENTER},TYPE,GHOST,SCREEN,0,INVISIBLE{ENTER},15233,2,1692
CRAT,137,WALK{ENTER},WAY,BOARD,SLEEP,0,{ENTER},1552,0,1276
CRAT,137,RED{ENTER},CARPET,ALERT,INK,0,{ENTER},1407,0,1153
CRAT,137,STATION{ENTER},WAGON,BREAK,RADIO,0,{ENTER},839,0,946
CRAT,137,SPACE{ENTER},CADET,CAPSULE,SHIP,0,{SHIFT}NAVY{ENTER},6818,3,1738
CRAT,137,SUIT{ENTER},WET,LAW,BUSINESS,0,{SHIFT}JUSTICE{ENTER},20150,2,2363
CRAT,137,,,,,,,,,
CRAT,137,,,,,,,,,
CRAT,137,,,,,,,,,
CRAT,137,,,,,,,,,
CRAT,137,,,,,,,,,
CRAT,137,,,,,,,,,
CRAT,138,,,,,,,,,
CRAT,138,,,,,,,,,
CRAT,138,,,,,,,,,
CRAT,138,,,,,,,,,
CRAT,138,,,,,,,,,
CRAT,138,RED{ENTER},CARPET,ALERT,INK,0,,0,0,1887
CRAT,138,BRUSH{ENTER},SAGE,PAINT,HAIR,0,,0,0,1652
CRAT,138,BOAT{ENTER},SHOW,LIFE,ROW,0,,0,0,1678
CRAT,138,GOLD{ENTER},FISH,MINE,RUSH,1,{SHIFT}GOLD{ENTER},10405,3,3505
CRAT,138,WRITER{ENTER},TYPE,GHOST,SCREEN,0,,0,0,1522
CRAT,138,GIRL{ENTER},FLOWER,FRIEND,SCOUT,0,,16115,0,2471
CRAT,138,SUIT{ENTER},WET,LAW,BUSINESS,0,,0,0,2971
CRAT,138,RACE{ENTER},HORSE,HUMAN,DRAG,1,RACE{ENTER},6976,2,6530
CRAT,138,POWDER{ENTER},KEG,PUFF,ROOM,0,,0,0,1896
CRAT,138,CAMP{ENTER},BOOT,SUMMER,GROUND,1,CAMP{ENTER},7022,2,1901
CRAT,138,STREET{ENTER},MAIN,SWEEPER,LIGHT,0,FLOOR{ENTER},3060,2,1855
CRAT,138,CALL{ENTER},CAT,NUMBER,PHONE,0,CELL{ENTER},20752,2,3308
CRAT,138,WALK{ENTER},WAY,BOARD,SLEEP,0,A{ENTER},22066,2,2102
CRAT,138,RING{ENTER},MASTER,TOSS,FINGER,0,N,24907,0,3584
CRAT,138,SAW{ENTER},MILL,TOOTH,DUST,0,,0,0,1846
CRAT,138,TREE{ENTER},PALM,SHOE,HOUSE,1,TREE{ENTER},1107,2,1235
CRAT,138,FIGURE{ENTER},EIGHT,SKATE,STICK,0,,0,0,1690
CRAT,138,PAPER{ENTER},FLY,CLIP,WALL,0,FIRE{ENTER},2003,2,2139
CRAT,138,HEAD{ENTER},HAMMER,GEAR,HUNTER,1,HEAD{ENTER},1420,2,2190
CRAT,138,COMMON{ENTER},SENSE,COURTESY,PLACE,1,COMMON{ENTER},1418,3,2315
CRAT,138,CHEESE{ENTER},COTTAGE,BRICK,CAKE,0,STONE{ENTER},1431,2,1752
CRAT,138,TURN{ENTER},PIKE,COAT,SIGNAL,0,,0,0,2411
CRAT,138,HOLE{ENTER},FOX,MAN,PEEP,1,HOLE{ENTER},4716,2,1215
CRAT,138,MARK{ENTER},DOWN,QUESTION,CHECK,0,PAY{ENTER},21980,2,1172
CRAT,138,SPACE{ENTER},CADET,CAPSULE,SHIP,0,,0,0,1205
CRAT,138,STATION{ENTER},WAGON,BREAK,RADIO,0,,0,0,4884
CRAT,138,BLOOD{ENTER},HOUND,PRESSURE,SHOT,0,,0,0,1859
CRAT,138,SOAP{ENTER},OPERA,HAND,DISH,1,SOAP{ENTER},935,4,1246
CRAT,138,MOON{ENTER},SHINE,BEAM,STRUCK,0,SUN{ENTER},14945,3,1369
CRAT,138,PIT{ENTER},PEACH,ARM,TAR,0,,0,0,3982
CRAT,138,,,,,,,,,
CRAT,138,,,,,,,,,
CRAT,138,,,,,,,,,
CRAT,138,,,,,,,,,
CRAT,138,,,,,,,,,
CRAT,138,,,,,,,,,
CRAT,139,,,,,,,,,
CRAT,139,,,,,,,,,
CRAT,139,,,,,,,,,
CRAT,139,,,,,,,,,
CRAT,139,,,,,,,,,
CRAT,139,PAPER{ENTER},FLY,CLIP,WALL,0,ART{ENTER},1987,3,2379
CRAT,139,STREET{ENTER},MAIN,SWEEPER,LIGHT,1,STREET{ENTER},2920,4,2890
CRAT,139,SOAP{ENTER},OPERA,HAND,DISH,1,SOAP{ENTER},1845,4,1493
CRAT,139,TREE{ENTER},PALM,SHOE,HOUSE,0,{ENTER},4841,0,4231
CRAT,139,PIT{ENTER},PEACH,ARM,TAR,0,HAIR{ENTER},1225,2,3779
CRAT,139,TURN{ENTER},PIKE,COAT,SIGNAL,0,{ENTER},9227,0,1417
CRAT,139,RED{ENTER},CARPET,ALERT,INK,1,RED{ENTER},3256,2,4394
CRAT,139,BLOOD{ENTER},HOUND,PRESSURE,SHOT,0,HOT{ENTER},4603,0,2594
CRAT,139,RING{ENTER},MASTER,TOSS,FINGER,0,GAME{ENTER},6942,1,3425
CRAT,139,POWDER{ENTER},KEG,PUFF,ROOM,0,{ENTER},5281,0,1339
CRAT,139,MARK{ENTER},DOWN,QUESTION,CHECK,0,{ENTER},13465,0,897
CRAT,139,SAW{ENTER},MILL,TOOTH,DUST,0,,18989,0,1265
CRAT,139,HOLE{ENTER},FOX,MAN,PEEP,0,{ENTER},14383,0,399
CRAT,139,WALK{ENTER},WAY,BOARD,SLEEP,1,WALK{ENTER},5889,4,3890
CRAT,139,GIRL{ENTER},FLOWER,FRIEND,SCOUT,1,GIRL{ENTER},3284,2,3542
CRAT,139,COMMON{ENTER},SENSE,COURTESY,PLACE,1,COMMON{ENTER},1436,2,2637
CRAT,139,BOAT{ENTER},SHOW,LIFE,ROW,0,NIGHT{ENTER},4711,1,4906
CRAT,139,STATION{ENTER},WAGON,BREAK,RADIO,1,STATION{ENTER},7247,2,3044
CRAT,139,CALL{ENTER},CAT,NUMBER,PHONE,1,CALL{ENTER},2338,4,1788
CRAT,139,FIGURE{ENTER},EIGHT,SKATE,STICK,0,BOARD{ENTER},18207,1,3835
CRAT,139,CAMP{ENTER},BOOT,SUMMER,GROUND,1,CAMP{ENTER},1554,2,4062
CRAT,139,MOON{ENTER},SHINE,BEAM,STRUCK,0,STAR{ENTER},8941,4,1929
CRAT,139,RACE{ENTER},HORSE,HUMAN,DRAG,1,RACE{ENTER},7986,4,1496
CRAT,139,WRITER{ENTER},TYPE,GHOST,SCREEN,1,WRITTER{ENTER},14406,4,2949
CRAT,139,SUIT{ENTER},WET,LAW,BUSINESS,0,{ENTER},10613,0,601
CRAT,139,SPACE{ENTER},CADET,CAPSULE,SHIP,0,{ENTER},9986,0,417
CRAT,139,GOLD{ENTER},FISH,MINE,RUSH,1,GOLD{ENTER},5201,4,2063
CRAT,139,HEAD{ENTER},HAMMER,GEAR,HUNTER,1,HEAD{ENTER},8063,2,2961
CRAT,139,BRUSH{ENTER},SAGE,PAINT,HAIR,0,{ENTER},7292,0,767
CRAT,139,CHEESE{ENTER},COTTAGE,BRICK,CAKE,1,CHEESE{ENTER},5110,3,1833
CRAT,139,,,,,,,,,
CRAT,139,,,,,,,,,
CRAT,139,,,,,,,,,
CRAT,139,,,,,,,,,
CRAT,139,,,,,,,,,
CRAT,139,,,,,,,,,
CRAT,140,,,,,,,,,
CRAT,140,,,,,,,,,
CRAT,140,,,,,,,,,
CRAT,140,,,,,,,,,
CRAT,140,,,,,,,,,
CRAT,140,POWDER{ENTER},KEG,PUFF,ROOM,0,{ENTER},10396,0,1241
CRAT,140,COMMON{ENTER},SENSE,COURTESY,PLACE,1,COMMON{ENTER},2444,4,1377
CRAT,140,CAMP{ENTER},BOOT,SUMMER,GROUND,1,CAMP{ENTER},1382,4,1018
CRAT,140,BLOOD{ENTER},HOUND,PRESSURE,SHOT,0,{ENTER},8009,0,525
CRAT,140,HOLE{ENTER},FOX,MAN,PEEP,0,{ENTER},6308,0,434
CRAT,140,SUIT{ENTER},WET,LAW,BUSINESS,0,GROUND{ENTER},8483,1,2546
CRAT,140,PAPER{ENTER},FLY,CLIP,WALL,0,{ENTER},16392,0,1153
CRAT,140,RACE{ENTER},HORSE,HUMAN,DRAG,0,{ENTER},12463,0,1010
CRAT,140,RING{ENTER},MASTER,TOSS,FINGER,0,{ENTER},10504,0,351
CRAT,140,MARK{ENTER},DOWN,QUESTION,CHECK,0,,0,0,2260
CRAT,140,SPACE{ENTER},CADET,CAPSULE,SHIP,0,{ENTER},976,0,309
CRAT,140,RED{ENTER},CARPET,ALERT,INK,0,TRAIL{ENTER},11165,2,1945
CRAT,140,BRUSH{ENTER},SAGE,PAINT,HAIR,0,{ENTER},11969,0,1050
CRAT,140,WRITER{ENTER},TYPE,GHOST,SCREEN,1,WRITER{ENTER},2773,4,1356
CRAT,140,FIGURE{ENTER},EIGHT,SKATE,STICK,0,{ENTER},17003,0,314
CRAT,140,SOAP{ENTER},OPERA,HAND,DISH,0,{ENTER},13664,0,303
CRAT,140,TURN{ENTER},PIKE,COAT,SIGNAL,0,{ENTER},4704,0,804
CRAT,140,STATION{ENTER},WAGON,BREAK,RADIO,0,{ENTER},14588,0,403
CRAT,140,STREET{ENTER},MAIN,SWEEPER,LIGHT,0,{ENTER},11367,0,298
CRAT,140,SAW{ENTER},MILL,TOOTH,DUST,0,{ENTER},9248,0,878
CRAT,140,GOLD{ENTER},FISH,MINE,RUSH,1,GOLD{ENTER},2267,4,1272
CRAT,140,TREE{ENTER},PALM,SHOE,HOUSE,0,,0,0,1698
CRAT,140,PIT{ENTER},PEACH,ARM,TAR,0,{ENTER},6679,0,469
CRAT,140,GIRL{ENTER},FLOWER,FRIEND,SCOUT,1,GIRL{ENTER},13842,4,1418
CRAT,140,WALK{ENTER},WAY,BOARD,SLEEP,0,,0,3,10148
CRAT,140,BOAT{ENTER},SHOW,LIFE,ROW,0,{ENTER},15819,0,1100
CRAT,140,MOON{ENTER},SHINE,BEAM,STRUCK,0,LIGHT{ENTER},13688,1,2214
CRAT,140,CHEESE{ENTER},COTTAGE,BRICK,CAKE,1,CHEESE{ENTER},14535,2,1648
CRAT,140,HEAD{ENTER},HAMMER,GEAR,HUNTER,0,{ENTER},8681,0,496
CRAT,140,CALL{ENTER},CAT,NUMBER,PHONE,1,CALL{ENTER},9627,1,1513
CRAT,140,,,,,,,,,
CRAT,140,,,,,,,,,
CRAT,140,,,,,,,,,
CRAT,140,,,,,,,,,
CRAT,140,,,,,,,,,
CRAT,140,,,,,,,,,
CRAT,141,,,,,,,,,
CRAT,141,,,,,,,,,
CRAT,141,,,,,,,,,
CRAT,141,,,,,,,,,
CRAT,141,,,,,,,,,
CRAT,141,PIT{ENTER},PEACH,ARM,TAR,1,PIT{ENTER},3023,2,2123
CRAT,141,WRITER{ENTER},TYPE,GHOST,SCREEN,0,BUSTER{ENTER},3047,3,850
CRAT,141,SOAP{ENTER},OPERA,HAND,DISH,1,SOAP{ENTER},2748,3,2757
CRAT,141,CAMP{ENTER},BOOT,SUMMER,GROUND,1,CAMP{ENTER},2708,4,670
CRAT,141,HOLE{ENTER},FOX,MAN,PEEP,0,T{INSERT}{INSERT}ROT{ENTER},8927,4,1803
CRAT,141,COMMON{ENTER},SENSE,COURTESY,PLACE,0,SHOP{ENTER},19457,1,1462
CRAT,141,MARK{ENTER},DOWN,QUESTION,CHECK,0,TOWN{ENTER},3630,4,672
CRAT,141,GIRL{ENTER},FLOWER,FRIEND,SCOUT,1,GIRL{ENTER},2960,3,1199
CRAT,141,BOAT{ENTER},SHOW,LIFE,ROW,0,CASE{ENTER},11876,2,961
CRAT,141,TREE{ENTER},PALM,SHOE,HOUSE,0,BEACH{ENTER},4767,3,2415
CRAT,141,CHEESE{ENTER},COTTAGE,BRICK,CAKE,1,CHEESE{ENTER},2354,4,1563
CRAT,141,MOON{ENTER},SHINE,BEAM,STRUCK,0,HYPER{ENTER},3901,3,931
CRAT,141,RACE{ENTER},HORSE,HUMAN,DRAG,0,BODY{ENTER},2676,4,1119
CRAT,141,STREET{ENTER},MAIN,SWEEPER,LIGHT,1,STREET{ENTER},5077,4,1337
CRAT,141,WALK{ENTER},WAY,BOARD,SLEEP,0,LONG{ENTER},2532,3,1958
CRAT,141,RED{ENTER},CARPET,ALERT,INK,1,RED{ENTER},1259,4,804
CRAT,141,SUIT{ENTER},WET,LAW,BUSINESS,0,FIRM{ENTER},2370,4,410
CRAT,141,STATION{ENTER},WAGON,BREAK,RADIO,1,STATION{ENTER},3644,4,862
CRAT,141,SPACE{ENTER},CADET,CAPSULE,SHIP,0,TIME{ENTER},3705,4,711
CRAT,141,TURN{ENTER},PIKE,COAT,SIGNAL,0,RACK{ENTER},7576,2,1167
CRAT,141,GOLD{ENTER},FISH,MINE,RUSH,0,DETECTOR{ENTER},21725,1,1584
CRAT,141,POWDER{ENTER},KEG,PUFF,ROOM,0,DORM{ENTER},7115,2,599
CRAT,141,BRUSH{ENTER},SAGE,PAINT,HAIR,0,BALL{ENTER},3116,4,724
CRAT,141,PAPER{ENTER},FLY,CLIP,WALL,0,BALL{ENTER},2727,4,464
CRAT,141,BLOOD{ENTER},HOUND,PRESSURE,SHOT,0,DOG{ENTER},7014,3,1318
CRAT,141,RING{ENTER},MASTER,TOSS,FINGER,0,BANG{ENTER},19082,1,1871
CRAT,141,CALL{ENTER},CAT,NUMBER,PHONE,1,CALL{ENTER},2267,4,649
CRAT,141,SAW{ENTER},MILL,TOOTH,DUST,1,SAW{ENTER},1472,4,1151
CRAT,141,FIGURE{ENTER},EIGHT,SKATE,STICK,1,FIGURE{ENTER},2537,4,874
CRAT,141,HEAD{ENTER},HAMMER,GEAR,HUNTER,0,JACK{ENTER},2083,4,904
CRAT,141,,,,,,,,,
CRAT,141,,,,,,,,,
CRAT,141,,,,,,,,,
CRAT,141,,,,,,,,,
CRAT,141,,,,,,,,,
CRAT,141,,,,,,,,,
CRAT,142,,,,,,,,,
CRAT,142,,,,,,,,,
CRAT,142,,,,,,,,,
CRAT,142,,,,,,,,,
CRAT,142,,,,,,,,,
CRAT,142,STREET{ENTER},MAIN,SWEEPER,LIGHT,1,STREET{ENTER},7065,1,5543
CRAT,142,SAW{ENTER},MILL,TOOTH,DUST,0,BRUSH{ENTER},13333,2,2691
CRAT,142,GIRL{ENTER},FLOWER,FRIEND,SCOUT,1,GIRL{ENTER},4182,3,2880
CRAT,142,HEAD{ENTER},HAMMER,GEAR,HUNTER,1,HEAD{ENTER},2352,4,2874
CRAT,142,CHEESE{ENTER},COTTAGE,BRICK,CAKE,0,,0,0,2158
CRAT,142,MOON{ENTER},SHINE,BEAM,STRUCK,0,SUN{ENTER},2211,2,4275
CRAT,142,MARK{ENTER},DOWN,QUESTION,CHECK,1,MARK{ENTER},4571,3,2148
CRAT,142,BOAT{ENTER},SHOW,LIFE,ROW,0,AFTER{ENTER},9166,1,1936
CRAT,142,WRITER{ENTER},TYPE,GHOST,SCREEN,0,,0,0,2583
CRAT,142,GOLD{ENTER},FISH,MINE,RUSH,0,POLE{ENTER},24139,2,1734
CRAT,142,CAMP{ENTER},BOOT,SUMMER,GROUND,1,CAMP{ENTER},7304,4,1914
CRAT,142,FIGURE{ENTER},EIGHT,SKATE,STICK,0,BOARD{SPACE}{ENTER},18471,1,2247
CRAT,142,BLOOD{ENTER},HOUND,PRESSURE,SHOT,0,HEAD{SPACE}{ENTER},8415,2,2914
CRAT,142,STATION{ENTER},WAGON,BREAK,RADIO,1,STATION{SPACE}{ENTER},7689,3,2139
CRAT,142,WALK{ENTER},WAY,BOARD,SLEEP,0,,0,0,3332
CRAT,142,PIT{ENTER},PEACH,ARM,TAR,0,,0,0,2031
CRAT,142,SPACE{ENTER},CADET,CAPSULE,SHIP,0,WAR{ENTER},15505,1,2657
CRAT,142,HOLE{ENTER},FOX,MAN,PEEP,0,{ENTER},16225,0,1521
CRAT,142,TREE{ENTER},PALM,SHOE,HOUSE,0,,0,0,2684
CRAT,142,TURN{ENTER},PIKE,COAT,SIGNAL,0,TAIL{ENTER},21140,1,5615
CRAT,142,PAPER{ENTER},FLY,CLIP,WALL,0,FIRE{ENTER},6018,3,1868
CRAT,142,SOAP{ENTER},OPERA,HAND,DISH,1,SOAP{ENTER},2475,4,1791
CRAT,142,POWDER{ENTER},KEG,PUFF,ROOM,0,{ENTER},21737,0,1259
CRAT,142,BRUSH{ENTER},SAGE,PAINT,HAIR,0,{ENTER},24096,0,1260
CRAT,142,CALL{ENTER},CAT,NUMBER,PHONE,0,FAT{ENTER},15403,1,2879
CRAT,142,SUIT{ENTER},WET,LAW,BUSINESS,1,SIUT{ENTER},5458,2,3236
CRAT,142,COMMON{ENTER},SENSE,COURTESY,PLACE,0,,0,0,1837
CRAT,142,RACE{ENTER},HORSE,HUMAN,DRAG,0,KINDA{ENTER},13231,1,2546
CRAT,142,RING{ENTER},MASTER,TOSS,FINGER,1,RING{ENTER},11323,2,3040
CRAT,142,RED{ENTER},CARPET,ALERT,INK,0,,0,0,2192
CRAT,142,,,,,,,,,
CRAT,142,,,,,,,,,
CRAT,142,,,,,,,,,
CRAT,142,,,,,,,,,
CRAT,142,,,,,,,,,
CRAT,142,,,,,,,,,
CRAT,144,,,,,,,,,
CRAT,144,,,,,,,,,
CRAT,144,,,,,,,,,
CRAT,144,,,,,,,,,
CRAT,144,,,,,,,,,
CRAT,144,COMMON{ENTER},SENSE,COURTESY,PLACE,1,COMMON{ENTER},10181,3,7243
CRAT,144,SAW{ENTER},MILL,TOOTH,DUST,1,SAW{ENTER},24909,3,5301
CRAT,144,RING{ENTER},MASTER,TOSS,FINGER,1,RING{ENTER},18947,2,3277
CRAT,144,STATION{ENTER},WAGON,BREAK,RADIO,0,,0,0,2722
CRAT,144,BRUSH{ENTER},SAGE,PAINT,HAIR,1,BRUSH{ENTER},5284,2,2718
CRAT,144,BOAT{ENTER},SHOW,LIFE,ROW,1,BOAT{ENTER},3487,3,2151
CRAT,144,SOAP{ENTER},OPERA,HAND,DISH,1,SOAP{ENTER},1989,4,1518
CRAT,144,SPACE{ENTER},CADET,CAPSULE,SHIP,0,,0,0,3567
CRAT,144,FIGURE{ENTER},EIGHT,SKATE,STICK,1,FIGURE{ENTER},1596,4,1431
CRAT,144,GOLD{ENTER},FISH,MINE,RUSH,1,GOLD{ENTER},3462,4,1263
CRAT,144,TURN{ENTER},PIKE,COAT,SIGNAL,0,,0,0,1629
CRAT,144,TREE{ENTER},PALM,SHOE,HOUSE,1,TREE{ENTER},3516,2,2579
CRAT,144,MOON{ENTER},SHINE,BEAM,STRUCK,0,STAR{ENTER},15335,2,4077
CRAT,144,HEAD{ENTER},HAMMER,GEAR,HUNTER,1,HEAD{ENTER},14269,3,1746
CRAT,144,CALL{ENTER},CAT,NUMBER,PHONE,0,,0,0,1764
CRAT,144,RACE{ENTER},HORSE,HUMAN,DRAG,1,RACE{ENTER},7070,3,4155
CRAT,144,STREET{ENTER},MAIN,SWEEPER,LIGHT,0,ROAD{ENTER},18046,2,1983
CRAT,144,BLOOD{ENTER},HOUND,PRESSURE,SHOT,0,POINT{ENTER},13744,2,2044
CRAT,144,CHEESE{ENTER},COTTAGE,BRICK,CAKE,1,CHEES{ENTER},12646,3,10320
CRAT,144,HOLE{ENTER},FOX,MAN,PEEP,1,HOLE{ENTER},4403,4,2356
CRAT,144,PAPER{ENTER},FLY,CLIP,WALL,1,PAPER{ENTER},8297,4,1665
CRAT,144,PIT{ENTER},PEACH,ARM,TAR,0,,0,0,1163
CRAT,144,RED{ENTER},CARPET,ALERT,INK,1,RED{ENTER},23639,2,3510
CRAT,144,SUIT{ENTER},WET,LAW,BUSINESS,0,,0,0,8939
CRAT,144,CAMP{ENTER},BOOT,SUMMER,GROUND,1,CAMP{ENTER},1895,4,900
CRAT,144,POWDER{ENTER},KEG,PUFF,ROOM,0,,0,0,1261
CRAT,144,WRITER{ENTER},TYPE,GHOST,SCREEN,1,WRITER{ENTER},1559,4,1587
CRAT,144,GIRL{ENTER},FLOWER,FRIEND,SCOUT,0,BOY{ENTER},9966,4,1213
CRAT,144,MARK{ENTER},DOWN,QUESTION,CHECK,0,,0,0,1404
CRAT,144,WALK{ENTER},WAY,BOARD,SLEEP,1,WALK{ENTER},4126,4,875
CRAT,144,,,,,,,,,
CRAT,144,,,,,,,,,
CRAT,144,,,,,,,,,
CRAT,144,,,,,,,,,
CRAT,144,,,,,,,,,
CRAT,144,,,,,,,,,
CRAT,145,,,,,,,,,
CRAT,145,,,,,,,,,
CRAT,145,,,,,,,,,
CRAT,145,,,,,,,,,
CRAT,145,,,,,,,,,
CRAT,145,MARK{ENTER},DOWN,QUESTION,CHECK,1,MARK{ENTER},3522,3,5689
CRAT,145,STATION{ENTER},WAGON,BREAK,RADIO,0,,0,0,1563
CRAT,145,BLOOD{ENTER},HOUND,PRESSURE,SHOT,0,,0,0,3992
CRAT,145,PAPER{ENTER},FLY,CLIP,WALL,0,,0,0,1767
CRAT,145,POWDER{ENTER},KEG,PUFF,ROOM,0,,0,0,2421
CRAT,145,SOAP{ENTER},OPERA,HAND,DISH,0,,0,0,3094
CRAT,145,GOLD{ENTER},FISH,MINE,RUSH,0,,0,0,4825
CRAT,145,CAMP{ENTER},BOOT,SUMMER,GROUND,0,{SHIFT}RAIN{ENTER},18990,2,5687
CRAT,145,PIT{ENTER},PEACH,ARM,TAR,0,,0,0,5884
CRAT,145,GIRL{ENTER},FLOWER,FRIEND,SCOUT,0,,0,0,3443
CRAT,145,RACE{ENTER},HORSE,HUMAN,DRAG,1,RACE{ENTER},13836,3,4467
CRAT,145,BRUSH{ENTER},SAGE,PAINT,HAIR,0,,0,0,5741
CRAT,145,WRITER{ENTER},TYPE,GHOST,SCREEN,0,,0,0,1937
CRAT,145,RED{ENTER},CARPET,ALERT,INK,1,RED{ENTER},20051,3,7934
CRAT,145,STREET{ENTER},MAIN,SWEEPER,LIGHT,1,STREET{ENTER},3591,4,1563
CRAT,145,HEAD{ENTER},HAMMER,GEAR,HUNTER,0,,0,0,1621
CRAT,145,HOLE{ENTER},FOX,MAN,PEEP,0,,0,0,1409
CRAT,145,BOAT{ENTER},SHOW,LIFE,ROW,0,TIME{ENTER},6793,2,3553
CRAT,145,SAW{ENTER},MILL,TOOTH,DUST,0,,0,0,1313
CRAT,145,TURN{ENTER},PIKE,COAT,SIGNAL,0,,21638,0,1308
CRAT,145,COMMON{ENTER},SENSE,COURTESY,PLACE,0,NO{ENTER},7454,2,4058
CRAT,145,CHEESE{ENTER},COTTAGE,BRICK,CAKE,1,CHEESE{ENTER},21327,2,2210
CRAT,145,MOON{ENTER},SHINE,BEAM,STRUCK,0,,0,0,1995
CRAT,145,FIGURE{ENTER},EIGHT,SKATE,STICK,1,FIGURE{ENTER},12610,2,1984
CRAT,145,TREE{ENTER},PALM,SHOE,HOUSE,1,TREE{ENTER},2154,3,4220
CRAT,145,SUIT{ENTER},WET,LAW,BUSINESS,0,,0,0,1303
CRAT,145,SPACE{ENTER},CADET,CAPSULE,SHIP,0,MILITARY{ENTER},8002,2,4247
CRAT,145,WALK{ENTER},WAY,BOARD,SLEEP,0,,0,0,1382
CRAT,145,CALL{ENTER},CAT,NUMBER,PHONE,0,,0,0,1402
CRAT,145,RING{ENTER},MASTER,TOSS,FINGER,0,,0,0,2296
CRAT,145,,,,,,,,,
CRAT,145,,,,,,,,,
CRAT,145,,,,,,,,,
CRAT,145,,,,,,,,,
CRAT,145,,,,,,,,,
CRAT,145,,,,,,,,,
CRAT,147,,,,,,,,,
CRAT,147,,,,,,,,,
CRAT,147,,,,,,,,,
CRAT,147,,,,,,,,,
CRAT,147,,,,,,,,,
CRAT,147,FIGURE{ENTER},EIGHT,SKATE,STICK,1,FIGURE{ENTER},4322,3,5670
CRAT,147,POWDER{ENTER},KEG,PUFF,ROOM,0,,0,0,1311
CRAT,147,COMMON{ENTER},SENSE,COURTESY,PLACE,1,COMMON{ENTER},3165,3,2484
CRAT,147,RED{ENTER},CARPET,ALERT,INK,1,RED{ENTER},1738,3,1406
CRAT,147,SUIT{ENTER},WET,LAW,BUSINESS,0,SCHOOL{ENTER},23035,2,4757
CRAT,147,CAMP{ENTER},BOOT,SUMMER,GROUND,1,CAMP{ENTER},1890,3,2400
CRAT,147,STREET{ENTER},MAIN,SWEEPER,LIGHT,1,STREET{ENTER},3684,3,2100
CRAT,147,GIRL{ENTER},FLOWER,FRIEND,SCOUT,1,GIRL{ENTER},2094,3,1650
CRAT,147,SAW{ENTER},MILL,TOOTH,DUST,1,SAW{ENTER},1776,3,1330
CRAT,147,TURN{ENTER},PIKE,COAT,SIGNAL,1,TURN{ENTER},2023,3,1583
CRAT,147,TREE{ENTER},PALM,SHOE,HOUSE,0,OIL{ENTER},14229,1,2795
CRAT,147,RACE{ENTER},HORSE,HUMAN,DRAG,1,RACE{ENTER},5685,2,3117
CRAT,147,SPACE{ENTER},CADET,CAPSULE,SHIP,0,{ENTER},17839,0,1114
CRAT,147,WRITER{ENTER},TYPE,GHOST,SCREEN,1,WRITTER{ENTER},8859,3,1482
CRAT,147,GOLD{ENTER},FISH,MINE,RUSH,1,GOLD{ENTER},1990,3,1343
CRAT,147,HEAD{ENTER},HAMMER,GEAR,HUNTER,0,{ENTER},6989,0,1005
CRAT,147,BRUSH{ENTER},SAGE,PAINT,HAIR,0,WET{ENTER},5022,1,1156
CRAT,147,PIT{ENTER},PEACH,ARM,TAR,0,{ENTER},11119,0,1325
CRAT,147,HOLE{ENTER},FOX,MAN,PEEP,1,HOLE{ENTER},6310,4,3460
CRAT,147,CHEESE{ENTER},COTTAGE,BRICK,CAKE,1,CHEESE{ENTER},2902,3,2679
CRAT,147,STATION{ENTER},WAGON,BREAK,RADIO,0,SILENCE{ENTER},10198,2,2284
CRAT,147,RING{ENTER},MASTER,TOSS,FINGER,1,RING{ENTER},1523,3,2129
CRAT,147,WALK{ENTER},WAY,BOARD,SLEEP,0,{ENTER},12316,0,1366
CRAT,147,PAPER{ENTER},FLY,CLIP,WALL,0,{ENTER},8290,0,1322
CRAT,147,CALL{ENTER},CAT,NUMBER,PHONE,1,CALL{ENTER},2305,2,1357
CRAT,147,BLOOD{ENTER},HOUND,PRESSURE,SHOT,0,{ENTER},6212,0,2838
CRAT,147,MOON{ENTER},SHINE,BEAM,STRUCK,0,LIGHT{ENTER},5246,2,2346
CRAT,147,SOAP{ENTER},OPERA,HAND,DISH,0,WASH{ENTER},3834,2,2564
CRAT,147,BOAT{ENTER},SHOW,LIFE,ROW,1,BOAT{ENTER},5577,4,3015
CRAT,147,MARK{ENTER},DOWN,QUESTION,CHECK,1,MARK{ENTER},4032,3,2433
CRAT,147,,,,,,,,,
CRAT,147,,,,,,,,,
CRAT,147,,,,,,,,,
CRAT,147,,,,,,,,,
CRAT,147,,,,,,,,,
CRAT,147,,,,,,,,,
CRAT,149,,,,,,,,,
CRAT,149,,,,,,,,,
CRAT,149,,,,,,,,,
CRAT,149,,,,,,,,,
CRAT,149,,,,,,,,,
CRAT,149,GOLD{ENTER},FISH,MINE,RUSH,1,GOLD{ENTER},3260,3,3086
CRAT,149,SUIT{ENTER},WET,LAW,BUSINESS,0,,0,0,2336
CRAT,149,MARK{ENTER},DOWN,QUESTION,CHECK,0,,0,0,2235
CRAT,149,SAW{ENTER},MILL,TOOTH,DUST,1,SAW{ENTER},23036,1,1797
CRAT,149,MOON{ENTER},SHINE,BEAM,STRUCK,0,HIGH{ENTER},17839,1,2585
CRAT,149,CALL{ENTER},CAT,NUMBER,PHONE,1,CALL{ENTER},3111,3,8703
CRAT,149,POWDER{ENTER},KEG,PUFF,ROOM,1,POWDER{ENTER},17430,1,1585
CRAT,149,PAPER{ENTER},FLY,CLIP,WALL,0,,0,0,1948
CRAT,149,BRUSH{ENTER},SAGE,PAINT,HAIR,1,BRUSH{ENTER},3795,3,2029
CRAT,149,HEAD{ENTER},HAMMER,GEAR,HUNTER,0,,0,0,1398
CRAT,149,STREET{ENTER},MAIN,SWEEPER,LIGHT,0,,0,0,1212
CRAT,149,WALK{ENTER},WAY,BOARD,SLEEP,1,WALK{ENTER},7057,4,1519
CRAT,149,COMMON{ENTER},SENSE,COURTESY,PLACE,1,COMMON{ENTER},3702,4,1493
CRAT,149,RACE{ENTER},HORSE,HUMAN,DRAG,1,RACE{ENTER},2947,4,1011
CRAT,149,SPACE{ENTER},CADET,CAPSULE,SHIP,1,SPACE{ENTER},3424,4,1450
CRAT,149,RING{ENTER},MASTER,TOSS,FINGER,1,RING{ENTER},6579,3,2101
CRAT,149,GIRL{ENTER},FLOWER,FRIEND,SCOUT,0,,0,0,2020
CRAT,149,BLOOD{ENTER},HOUND,PRESSURE,SHOT,1,BLOOD{ENTER},2566,4,1063
CRAT,149,FIGURE{ENTER},EIGHT,SKATE,STICK,0,,0,0,7556
CRAT,149,PIT{ENTER},PEACH,ARM,TAR,0,,0,0,2160
CRAT,149,STATION{ENTER},WAGON,BREAK,RADIO,0,WHEEL{ENTER},13487,1,4150
CRAT,149,SOAP{ENTER},OPERA,HAND,DISH,1,SOPA{ENTER},2495,2,8482
CRAT,149,TREE{ENTER},PALM,SHOE,HOUSE,1,TREE{ENTER},9834,3,3775
CRAT,149,WRITER{ENTER},TYPE,GHOST,SCREEN,0,,0,0,3661
CRAT,149,CAMP{ENTER},BOOT,SUMMER,GROUND,0,RAIN{ENTER},8586,2,2773
CRAT,149,BOAT{ENTER},SHOW,LIFE,ROW,0,REALITY{ENTER},21542,4,1375
CRAT,149,HOLE{ENTER},FOX,MAN,PEEP,1,HOLE{ENTER},3812,4,1054
CRAT,149,CHEESE{ENTER},COTTAGE,BRICK,CAKE,1,CHEESE{ENTER},2477,3,3681
CRAT,149,RED{ENTER},CARPET,ALERT,INK,0,,0,0,2656
CRAT,149,TURN{ENTER},PIKE,COAT,SIGNAL,0,,0,0,7547
CRAT,149,,,,,,,,,
CRAT,149,,,,,,,,,
CRAT,149,,,,,,,,,
CRAT,149,,,,,,,,,
CRAT,149,,,,,,,,,
CRAT,149,,,,,,,,,
CRAT,150,,,,,,,,,
CRAT,150,,,,,,,,,
CRAT,150,,,,,,,,,
CRAT,150,,,,,,,,,
CRAT,150,,,,,,,,,
CRAT,150,STREET{ENTER},MAIN,SWEEPER,LIGHT,0,POLE{ENTER},7375,1,2719
CRAT,150,CHEESE{ENTER},COTTAGE,BRICK,CAKE,0,YARD{ENTER},24719,1,2223
CRAT,150,CAMP{ENTER},BOOT,SUMMER,GROUND,1,CAMP{ENTER},4529,2,5532
CRAT,150,PAPER{ENTER},FLY,CLIP,WALL,1,PAPER{ENTER},9586,2,2386
CRAT,150,HEAD{ENTER},HAMMER,GEAR,HUNTER,0,TOOL{ENTER},24230,1,1755
CRAT,150,FIGURE{ENTER},EIGHT,SKATE,STICK,1,FIGURE{ENTER},3105,4,2666
CRAT,150,GIRL{ENTER},FLOWER,FRIEND,SCOUT,1,GIRL{ENTER},2019,4,2363
CRAT,150,RING{ENTER},MASTER,TOSS,FINGER,1,{SHIFT}rING{LEFTARROW}{LEFTARROW},23818,1,4942
CRAT,150,POWDER{ENTER},KEG,PUFF,ROOM,0,BALL{ENTER},21081,2,1799
CRAT,150,MOON{ENTER},SHINE,BEAM,STRUCK,0,LIGHTNING{ENTER},18107,1,2377
CRAT,150,CALL{ENTER},CAT,NUMBER,PHONE,1,{SHIFT}CALL{ENTER},19646,3,4602
CRAT,150,PIT{ENTER},PEACH,ARM,TAR,0,,0,0,3620
CRAT,150,WRITER{ENTER},TYPE,GHOST,SCREEN,0,{SHIFT}{SHIFT}fULL{ENTER},24611,1,2200
CRAT,150,TREE{ENTER},PALM,SHOE,HOUSE,0,,0,0,1648
CRAT,150,BLOOD{ENTER},HOUND,PRESSURE,SHOT,0,,0,0,2627
CRAT,150,WALK{ENTER},WAY,BOARD,SLEEP,0,,0,0,1232
CRAT,150,STATION{ENTER},WAGON,BREAK,RADIO,1,{SHIFT}STATION{ENTER},24352,1,1664
CRAT,150,HOLE{ENTER},FOX,MAN,PEEP,0,{SHIFT}CHICKEN,15201,1,1253
CRAT,150,MARK{ENTER},DOWN,QUESTION,CHECK,0,ANSWER{ENTER},15586,4,2237
CRAT,150,SPACE{ENTER},CADET,CAPSULE,SHIP,0,{SHIFT}{SHIFT}NAVY{ENTER},8071,4,1832
CRAT,150,COMMON{ENTER},SENSE,COURTESY,PLACE,0,,0,0,1356
CRAT,150,SOAP{ENTER},OPERA,HAND,DISH,1,{SHIFT}SOAP{ENTER},11074,4,2433
CRAT,150,GOLD{ENTER},FISH,MINE,RUSH,0,{SHIFT}{SHIFT}{SHIFT}W,24869,0,3481
CRAT,150,BRUSH{ENTER},SAGE,PAINT,HAIR,1,{SHIFT}BRUSH{ENTER},5664,4,1962
CRAT,150,BOAT{ENTER},SHOW,LIFE,ROW,0,{SHIFT}TIME,6981,2,5321
CRAT,150,TURN{ENTER},PIKE,COAT,SIGNAL,1,{SHIFT}TURN,23742,4,2418
CRAT,150,RED{ENTER},CARPET,ALERT,INK,1,{SHIFT}RED{ENTER},3431,4,1746
CRAT,150,RACE{ENTER},HORSE,HUMAN,DRAG,1,{SHIFT}RACE{ENTER},11193,4,1476
CRAT,150,SAW{ENTER},MILL,TOOTH,DUST,1,{SHIFT}SAW{ENTER},20780,4,1719
CRAT,150,SUIT{ENTER},WET,LAW,BUSINESS,0,,0,0,2051
CRAT,150,,,,,,,,,
CRAT,150,,,,,,,,,
CRAT,150,,,,,,,,,
CRAT,150,,,,,,,,,
CRAT,150,,,,,,,,,
CRAT,150,,,,,,,,,
CRAT,151,,,,,,,,,
CRAT,151,,,,,,,,,
CRAT,151,,,,,,,,,
CRAT,151,,,,,,,,,
CRAT,151,,,,,,,,,
CRAT,151,WRITER{ENTER},TYPE,GHOST,SCREEN,0,COMPUTER{ENTER},23612,2,6508
CRAT,151,MARK{ENTER},DOWN,QUESTION,CHECK,0,,0,0,2402
CRAT,151,GOLD{ENTER},FISH,MINE,RUSH,1,GOLD{ENTER},3623,4,2010
CRAT,151,SPACE{ENTER},CADET,CAPSULE,SHIP,0,TIME{ENTER},14728,3,4057
CRAT,151,RED{ENTER},CARPET,ALERT,INK,1,RED{ENTER},2916,1,4565
CRAT,151,SUIT{ENTER},WET,LAW,BUSINESS,0,FIRM{ENTER},18569,3,2436
CRAT,151,STATION{ENTER},WAGON,BREAK,RADIO,0,WHEEL{ENTER},17476,1,1502
CRAT,151,PIT{ENTER},PEACH,ARM,TAR,0,SOFT{ENTER},16751,4,3561
CRAT,151,TREE{ENTER},PALM,SHOE,HOUSE,1,TREE{ENTER},12714,3,2626
CRAT,151,RING{ENTER},MASTER,TOSS,FINGER,1,RING{ENTER},3085,1,2263
CRAT,151,RACE{ENTER},HORSE,HUMAN,DRAG,1,RACE{ENTER},2897,1,2435
CRAT,151,COMMON{ENTER},SENSE,COURTESY,PLACE,1,COMMON{ENTER},3826,3,2187
CRAT,151,TURN{ENTER},PIKE,COAT,SIGNAL,0,CHAIN{ENTER},16274,2,2271
CRAT,151,CHEESE{ENTER},COTTAGE,BRICK,CAKE,1,CHEESE{ENTER},6579,3,1734
CRAT,151,MOON{ENTER},SHINE,BEAM,STRUCK,0,STAR{ENTER},6810,3,2370
CRAT,151,BRUSH{ENTER},SAGE,PAINT,HAIR,0,WET{ENTER},9550,3,2847
CRAT,151,CAMP{ENTER},BOOT,SUMMER,GROUND,0,,13594,0,2045
CRAT,151,BLOOD{ENTER},HOUND,PRESSURE,SHOT,1,BLOOD{ENTER},4213,2,2702
CRAT,151,CALL{ENTER},CAT,NUMBER,PHONE,0,,0,0,2270
CRAT,151,STREET{ENTER},MAIN,SWEEPER,LIGHT,1,STREET{ENTER},4815,2,2638
CRAT,151,POWDER{ENTER},KEG,PUFF,ROOM,0,BEER{ENTER},22516,2,1379
CRAT,151,BOAT{ENTER},SHOW,LIFE,ROW,0,{ENTER},22268,0,854
CRAT,151,SOAP{ENTER},OPERA,HAND,DISH,1,SOAP{ENTER},2975,1,2333
CRAT,151,GIRL{ENTER},FLOWER,FRIEND,SCOUT,1,GIRL{ENTER},14322,3,3380
CRAT,151,FIGURE{ENTER},EIGHT,SKATE,STICK,0,CRAZY{ENTER},10770,3,2911
CRAT,151,PAPER{ENTER},FLY,CLIP,WALL,0,{ENTER},20836,0,876
CRAT,151,HOLE{ENTER},FOX,MAN,PEEP,1,HOLE{ENTER},10530,2,2650
CRAT,151,SAW{ENTER},MILL,TOOTH,DUST,0,BRUSH{ENTER},20150,3,1771
CRAT,151,WALK{ENTER},WAY,BOARD,SLEEP,1,WALK{ENTER},8960,2,3195
CRAT,151,HEAD{ENTER},HAMMER,GEAR,HUNTER,1,HEAD{ENTER},2982,3,3124
CRAT,151,,,,,,,,,
CRAT,151,,,,,,,,,
CRAT,151,,,,,,,,,
CRAT,151,,,,,,,,,
CRAT,151,,,,,,,,,
CRAT,151,,,,,,,,,
CRAT,152,,,,,,,,,
CRAT,152,,,,,,,,,
CRAT,152,,,,,,,,,
CRAT,152,,,,,,,,,
CRAT,152,,,,,,,,,
CRAT,152,PIT{ENTER},PEACH,ARM,TAR,1,PIT{ENTER},2586,4,3210
CRAT,152,CALL{ENTER},CAT,NUMBER,PHONE,0,CELL{ENTER},14175,2,3929
CRAT,152,STREET{ENTER},MAIN,SWEEPER,LIGHT,0,FRAME,24496,1,8740
CRAT,152,BRUSH{ENTER},SAGE,PAINT,HAIR,0,COLOR{ENTER},18576,2,3066
CRAT,152,HEAD{ENTER},HAMMER,GEAR,HUNTER,0,,0,0,1505
CRAT,152,SAW{ENTER},MILL,TOOTH,DUST,0,FAIRY,5272,3,3404
CRAT,152,SUIT{ENTER},WET,LAW,BUSINESS,0,,0,0,1326
CRAT,152,WRITER{ENTER},TYPE,GHOST,SCREEN,0,WRITE{ENTER},6407,3,3201
CRAT,152,RED{ENTER},CARPET,ALERT,INK,0,CARTRIDGE,18535,0,2252
CRAT,152,SOAP{ENTER},OPERA,HAND,DISH,0,WASH,23911,4,4140
CRAT,152,MARK{ENTER},DOWN,QUESTION,CHECK,1,MARK{ENTER},12129,3,2227
CRAT,152,STATION{ENTER},WAGON,BREAK,RADIO,0,,19408,0,1316
CRAT,152,CHEESE{ENTER},COTTAGE,BRICK,CAKE,0,WHITE{ENTER},17559,2,2798
CRAT,152,CAMP{ENTER},BOOT,SUMMER,GROUND,0,,0,0,1133
CRAT,152,TREE{ENTER},PALM,SHOE,HOUSE,1,TREE,7666,1,3622
CRAT,152,RACE{ENTER},HORSE,HUMAN,DRAG,0,,0,0,1323
CRAT,152,PAPER{ENTER},FLY,CLIP,WALL,0,,0,0,1154
CRAT,152,GIRL{ENTER},FLOWER,FRIEND,SCOUT,0,,23448,0,1246
CRAT,152,BLOOD{ENTER},HOUND,PRESSURE,SHOT,0,,0,0,1066
CRAT,152,TURN{ENTER},PIKE,COAT,SIGNAL,0,WI,24320,0,2133
CRAT,152,WALK{ENTER},WAY,BOARD,SLEEP,0,STIF,24902,0,2732
CRAT,152,BOAT{ENTER},SHOW,LIFE,ROW,1,BOAT{ENTER},8840,4,2441
CRAT,152,MOON{ENTER},SHINE,BEAM,STRUCK,0,SUN,23719,3,3900
CRAT,152,HOLE{ENTER},FOX,MAN,PEEP,0,,0,0,1035
CRAT,152,FIGURE{ENTER},EIGHT,SKATE,STICK,0,SKATE{ENTER},3213,4,1041
CRAT,152,RING{ENTER},MASTER,TOSS,FINGER,0,{ENTER},16960,0,945
CRAT,152,GOLD{ENTER},FISH,MINE,RUSH,0,{ENTER},18300,0,1027
CRAT,152,SPACE{ENTER},CADET,CAPSULE,SHIP,0,{ENTER},11892,0,1361
CRAT,152,POWDER{ENTER},KEG,PUFF,ROOM,0,{ENTER},6934,0,826
CRAT,152,COMMON{ENTER},SENSE,COURTESY,PLACE,0,ONE{ENTER},19752,3,2048
CRAT,152,,,,,,,,,
CRAT,152,,,,,,,,,
CRAT,152,,,,,,,,,
CRAT,152,,,,,,,,,
CRAT,152,,,,,,,,,
CRAT,152,,,,,,,,,
CRAT,153,,,,,,,,,
CRAT,153,,,,,,,,,
CRAT,153,,,,,,,,,
CRAT,153,,,,,,,,,
CRAT,153,,,,,,,,,
CRAT,153,MARK{ENTER},DOWN,QUESTION,CHECK,1,MARK{ENTER},2914,4,946
CRAT,153,STATION{ENTER},WAGON,BREAK,RADIO,1,STATION{ENTER},7615,2,4757
CRAT,153,COMMON{ENTER},SENSE,COURTESY,PLACE,1,COMMON{ENTER},2748,4,1492
CRAT,153,HEAD{ENTER},HAMMER,GEAR,HUNTER,1,HEAD{ENTER},2532,4,966
CRAT,153,HOLE{ENTER},FOX,MAN,PEEP,1,HOLE{ENTER},4447,3,1598
CRAT,153,CHEESE{ENTER},COTTAGE,BRICK,CAKE,0,WALK{ENTER},10711,1,2070
